trials_2D.thisRepN,trials_2D.thisTrialN,trials_2D.thisN,trials_2D.thisIndex,trials_3D.thisRepN,trials_3D.thisTrialN,trials_3D.thisN,trials_3D.thisIndex,instr_2D.started,instr_2D.stopped,instr_2D_kb.keys,instr_2D_kb.rt,instr_2D_kb.started,instr_2D_kb.stopped,fix_point_2D.started,fix_point_2D.stopped,fix_point_2D_ISI.started,fix_point_2D_ISI.stopped,x_pos_correct,x_pos_wrong,img_correct,img_wrong,img_target,trial_2D_mouse.x,trial_2D_mouse.y,trial_2D_mouse.leftButton,trial_2D_mouse.midButton,trial_2D_mouse.rightButton,trial_2D_mouse.time,trial_2D_mouse.clicked_name,trial_2D_mouse.clicked_pos,trial_2D_mouse.started,trial_2D_mouse.stopped,img_correct.started,img_correct.stopped,img_target.started,img_target.stopped,img_wrong.started,img_wrong.stopped,instr_3D.started,instr_3D.stopped,instr_3D_kb.keys,instr_3D_kb.rt,instr_3D_kb.started,instr_3D_kb.stopped,fix_point_3D.started,fix_point_3D.stopped,fix_point_3D_ISI.started,fix_point_3D_ISI.stopped,corrAns,stim_path,stim_3D.started,stim_3D.stopped,key_resp_3D.keys,key_resp_3D.rt,key_resp_3D.started,key_resp_3D.stopped,feedback_text.started,feedback_text.stopped,participant,session,group,date,expName,psychopyVersion,frameRate,
,,,,,,,,615.0133915000042,None,space,10.683746899987455,615.0133915000042,None,,,,,,,,,,,,,,,,,,,,,,,,,,,,,,,,,,,,,,,,,,,,,,001,001,A,2022_Mar_07_1814,270300_Mental_Rotation,2021.2.3,144.17781161261973,
0,0,0,0,,,,,,,,,,,625.7295933999994,None,0.0049615400057518855,1.0049615400057519,-250,250,Stimuli_2d/correct12.png,Stimuli_2d/wrong12.png,Stimuli_2d/target12.png,0.21481481,-0.13518518,1,0,0,0.9632854999945266,img_wrong,[ 250. -139.],0.004484920005779713,None,626.7162856000068,None,626.7162856000068,None,626.7162856000068,None,,,,,,,,,,,,,,,,,,,,,001,001,A,2022_Mar_07_1814,270300_Mental_Rotation,2021.2.3,144.17781161261973,
1,0,1,0,,,,,,,,,,,627.6828901000117,None,0.0005061199917690828,1.000506119991769,-250,250,Stimuli_2d/correct6.png,Stimuli_2d/wrong6.png,Stimuli_2d/target6.png,-0.2175926,-0.13055556,1,0,0,1.3055521999922348,img_correct,[-250. -139.],0.0036546199989970773,None,628.6849536000082,None,628.6849536000082,None,628.6849536000082,None,,,,,,,,,,,,,,,,,,,,,001,001,A,2022_Mar_07_1814,270300_Mental_Rotation,2021.2.3,144.17781161261973,
2,0,2,0,,,,,,,,,,,629.9929275000031,None,0.0029108200105838478,1.0029108200105838,250,-250,Stimuli_2d/correct1.png,Stimuli_2d/wrong1.png,Stimuli_2d/target1.png,0.23796296,-0.15462963,1,0,0,0.6078676000033738,img_correct,[ 250. -139.],0.003665019990876317,None,630.9965473000047,None,630.9965473000047,None,630.9965473000047,None,,,,,,,,,,,,,,,,,,,,,001,001,A,2022_Mar_07_1814,270300_Mental_Rotation,2021.2.3,144.17781161261973,
3,0,3,0,,,,,,,,,,,631.6088780999999,None,0.006363239997881465,1.0063632399978815,250,-250,Stimuli_2d/correct4.png,Stimuli_2d/wrong4.png,Stimuli_2d/target4.png,0.24444444,-0.13240741,1,0,0,0.6337841000058688,img_correct,[ 250. -139.],0.0036808200093219057,None,632.6134015999996,None,632.6134015999996,None,632.6134015999996,None,,,,,,,,,,,,,,,,,,,,,001,001,A,2022_Mar_07_1814,270300_Mental_Rotation,2021.2.3,144.17781161261973,
4,0,4,0,,,,,,,,,,,633.2510758999997,None,0.002099920006003231,1.0020999200060032,-250,250,Stimuli_2d/correct13.png,Stimuli_2d/wrong13.png,Stimuli_2d/target13.png,-0.21111111,-0.1287037,1,0,0,1.0725797999912174,img_correct,[-250. -139.],0.003959619993111119,None,634.2513111000007,None,634.2513111000007,None,634.2513111000007,None,,,,,,,,,,,,,,,,,,,,,001,001,A,2022_Mar_07_1814,270300_Mental_Rotation,2021.2.3,144.17781161261973,
5,0,5,0,,,,,,,,,,,635.3272033000103,None,0.0009742199763422832,1.0009742199763423,-250,250,Stimuli_2d/correct10.png,Stimuli_2d/wrong10.png,Stimuli_2d/target10.png,-0.19722222,-0.15555556,1,0,0,1.6214524999959394,img_correct,[-250. -139.],0.0045829199807485566,None,636.3277276000008,None,636.3277276000008,None,636.3277276000008,None,,,,,,,,,,,,,,,,,,,,,001,001,A,2022_Mar_07_1814,270300_Mental_Rotation,2021.2.3,144.17781161261973,
6,0,6,0,,,,,,,,,,,637.95231410001,None,0.0008950199990067631,1.0008950199990068,-250,250,Stimuli_2d/correct14.png,Stimuli_2d/wrong14.png,Stimuli_2d/target14.png,-0.19722222,-0.15185185,1,0,0,1.3224565999989863,img_correct,[-250. -139.],0.003788019996136427,None,638.9533921000111,None,638.9533921000111,None,638.9533921000111,None,,,,,,,,,,,,,,,,,,,,,001,001,A,2022_Mar_07_1814,270300_Mental_Rotation,2021.2.3,144.17781161261973,
7,0,7,0,,,,,,,,,,,640.2800796000083,None,0.006661940002231859,1.0066619400022319,-250,250,Stimuli_2d/correct8.png,Stimuli_2d/wrong8.png,Stimuli_2d/target8.png,-0.2175926,-0.14444445,1,0,0,0.9088061999937054,img_correct,[-250. -139.],0.0028886200016131625,None,641.282540900007,None,641.282540900007,None,641.282540900007,None,,,,,,,,,,,,,,,,,,,,,001,001,A,2022_Mar_07_1814,270300_Mental_Rotation,2021.2.3,144.17781161261973,
8,0,8,0,,,,,,,,,,,642.1935401000082,None,0.001953919985680841,1.0019539199856808,-250,250,Stimuli_2d/correct3.png,Stimuli_2d/wrong3.png,Stimuli_2d/target3.png,0.20277777,-0.1425926,1,0,0,0.8707379999978002,img_wrong,[ 250. -139.],0.003599420000682585,None,643.1952934000001,None,643.1952934000001,None,643.1952934000001,None,,,,,,,,,,,,,,,,,,,,,001,001,A,2022_Mar_07_1814,270300_Mental_Rotation,2021.2.3,144.17781161261973,
9,0,9,0,,,,,,,,,,,644.0702630000014,None,0.0006396199896698818,1.0006396199896699,250,-250,Stimuli_2d/correct5.png,Stimuli_2d/wrong5.png,Stimuli_2d/target5.png,0.18888889,-0.13425925,1,0,0,1.051006400011829,img_correct,[ 250. -139.],0.0034242199908476323,None,645.0716360000079,None,645.0716360000079,None,645.0716360000079,None,,,,,,,,,,,,,,,,,,,,,001,001,A,2022_Mar_07_1814,270300_Mental_Rotation,2021.2.3,144.17781161261973,
10,0,10,0,,,,,,,,,,,646.1268500000006,None,0.006264739990001544,1.0062647399900015,-250,250,Stimuli_2d/correct7.png,Stimuli_2d/wrong7.png,Stimuli_2d/target7.png,-0.27037036,-0.1037037,1,0,0,1.6453782999888062,img_correct,[-250. -139.],0.00373201999173034,None,647.1292651000113,None,647.1292651000113,None,647.1292651000113,None,,,,,,,,,,,,,,,,,,,,,001,001,A,2022_Mar_07_1814,270300_Mental_Rotation,2021.2.3,144.17781161261973,
11,0,11,0,,,,,,,,,,,648.7798946000112,None,0.0011741199850803241,1.0011741199850803,-250,250,Stimuli_2d/correct11.png,Stimuli_2d/wrong11.png,Stimuli_2d/target11.png,-0.22222222,-0.12314815,1,0,0,1.2803999000025215,img_correct,[-250. -139.],0.0035801199846901,None,649.7842012000037,None,649.7842012000037,None,649.7842012000037,None,,,,,,,,,,,,,,,,,,,,,001,001,A,2022_Mar_07_1814,270300_Mental_Rotation,2021.2.3,144.17781161261973,
12,0,12,0,,,,,,,,,,,651.0676490000042,None,0.0018317199865123257,1.0018317199865123,250,-250,Stimuli_2d/correct9.png,Stimuli_2d/wrong9.png,Stimuli_2d/target9.png,0.22777778,-0.14074074,1,0,0,1.1417440999939572,img_correct,[ 250. -139.],0.0037189199938438833,None,652.0831133000029,None,652.0831133000029,None,652.0831133000029,None,,,,,,,,,,,,,,,,,,,,,001,001,A,2022_Mar_07_1814,270300_Mental_Rotation,2021.2.3,144.17781161261973,
13,0,13,0,,,,,,,,,,,653.2292786000035,None,0.0006681200029561296,1.0006681200029561,-250,250,Stimuli_2d/correct2.png,Stimuli_2d/wrong2.png,Stimuli_2d/target2.png,-0.225,-0.12407407,1,0,0,0.7130891999986488,img_correct,[-250. -139.],0.004488619990297593,None,654.2331845000008,None,654.2331845000008,None,654.2331845000008,None,,,,,,,,,,,,,,,,,,,,,001,001,A,2022_Mar_07_1814,270300_Mental_Rotation,2021.2.3,144.17781161261973,
14,0,14,0,,,,,,,,,,,654.9490747000091,None,0.0017108199972426519,1.0017108199972427,250,-250,Stimuli_2d/correct15.png,Stimuli_2d/wrong15.png,Stimuli_2d/target15.png,-0.21018519,-0.13981481,1,0,0,0.8926756000000751,img_wrong,[-250. -139.],0.004255919993738644,None,655.9503395000065,None,655.9503395000065,None,655.9503395000065,None,,,,,,,,,,,,,,,,,,,,,001,001,A,2022_Mar_07_1814,270300_Mental_Rotation,2021.2.3,144.17781161261973,
,,,,,,,,,,,,,,,,,,,,,,,,,,,,,,,,,,,,,,,656.8482626000041,None,space,23.073767599998973,656.8482626000041,None,,,,,,,,,,,,,,,001,001,A,2022_Mar_07_1814,270300_Mental_Rotation,2021.2.3,144.17781161261973,
,,,,0,0,0,0,,,,,,,,,,,,,,,,,,,,,,,,,,,,,,,,,,,,,,679.9452113000007,None,0.003632739986642264,1.0036327399866423,1,Stimuli_3D\easy\01_0.jpg,680.9456697999995,None,up,3.2404919999971753,680.9456697999995,None,None,None,001,001,A,2022_Mar_07_1814,270300_Mental_Rotation,2021.2.3,144.17781161261973,
,,,,1,0,1,0,,,,,,,,,,,,,,,,,,,,,,,,,,,,,,,,,,,,,,684.2185190000018,None,0.005455980004626326,1.0054559800046263,1,Stimuli_3D\easy\01_0_R.jpg,685.2220147000044,None,down,0.799895899996045,685.2220147000044,None,None,None,001,001,A,2022_Mar_07_1814,270300_Mental_Rotation,2021.2.3,144.17781161261973,
,,,,2,0,2,0,,,,,,,,,,,,,,,,,,,,,,,,,,,,,,,,,,,,,,686.044504800011,None,0.006209160012076609,1.0062091600120766,1,Stimuli_3D\easy\01_50.jpg,687.0486375000037,None,up,0.5110608999966644,687.0486375000037,None,None,None,001,001,A,2022_Mar_07_1814,270300_Mental_Rotation,2021.2.3,144.17781161261973,
,,,,3,0,3,0,,,,,,,,,,,,,,,,,,,,,,,,,,,,,,,,,,,,,,687.5888405000005,None,0.0030386800062842667,1.0030386800062843,1,Stimuli_3D\easy\01_50_R.jpg,688.5980662000075,None,down,0.8121150999941165,688.5980662000075,None,None,None,001,001,A,2022_Mar_07_1814,270300_Mental_Rotation,2021.2.3,144.17781161261973,
,,,,4,0,4,0,,,,,,,,,,,,,,,,,,,,,,,,,,,,,,,,,,,,,,689.4472224000056,None,0.002003099987632595,1.0020030999876326,1,Stimuli_3D\easy\01_100.jpg,690.4522947000078,None,up,0.7692068000033032,690.4522947000078,None,None,None,001,001,A,2022_Mar_07_1814,270300_Mental_Rotation,2021.2.3,144.17781161261973,
,,,,5,0,5,0,,,,,,,,,,,,,,,,,,,,,,,,,,,,,,,,,,,,,,691.2445036999998,None,0.00014973999350331724,1.0001497399935033,1,Stimuli_3D\easy\01_100_R.jpg,692.2499188000074,None,down,0.7850707999896258,692.2499188000074,None,None,None,001,001,A,2022_Mar_07_1814,270300_Mental_Rotation,2021.2.3,144.17781161261973,
,,,,6,0,6,0,,,,,,,,,,,,,,,,,,,,,,,,,,,,,,,,,,,,,,693.0771034000063,None,0.003758399994694628,1.0037583999946946,1,Stimuli_3D\easy\01_150.jpg,694.0787491000083,None,up,0.6562591999972938,694.0787491000083,None,None,None,001,001,A,2022_Mar_07_1814,270300_Mental_Rotation,2021.2.3,144.17781161261973,
,,,,7,0,7,0,,,,,,,,,,,,,,,,,,,,,,,,,,,,,,,,,,,,,,694.7709012000123,None,0.005501199993886985,1.005501199993887,1,Stimuli_3D\easy\01_150_R.jpg,695.7746374000126,None,down,0.5978877000015927,695.7746374000126,None,None,None,001,001,A,2022_Mar_07_1814,270300_Mental_Rotation,2021.2.3,144.17781161261973,
,,,,8,0,8,0,,,,,,,,,,,,,,,,,,,,,,,,,,,,,,,,,,,,,,696.4012968000025,None,0.0050721799925668165,1.0050721799925668,1,Stimuli_3D\easy\02_0.jpg,697.4055214000109,None,up,0.5420766000024742,697.4055214000109,None,None,None,001,001,A,2022_Mar_07_1814,270300_Mental_Rotation,2021.2.3,144.17781161261973,
,,,,9,0,9,0,,,,,,,,,,,,,,,,,,,,,,,,,,,,,,,,,,,,,,697.9853151999996,None,0.005013100002543069,1.005013100002543,1,Stimuli_3D\easy\02_0_R.jpg,698.9875983000093,None,down,0.9221466000017244,698.9875983000093,None,None,None,001,001,A,2022_Mar_07_1814,270300_Mental_Rotation,2021.2.3,144.17781161261973,
,,,,10,0,10,0,,,,,,,,,,,,,,,,,,,,,,,,,,,,,,,,,,,,,,699.950064100005,None,0.00499889999628067,1.0049988999962807,1,Stimuli_3D\easy\02_50.jpg,700.9532928000117,None,up,0.6318906000087736,700.9532928000117,None,701.6467780000094,None,001,001,A,2022_Mar_07_1814,270300_Mental_Rotation,2021.2.3,144.17781161261973,
,,,,11,0,11,0,,,,,,,,,,,,,,,,,,,,,,,,,,,,,,,,,,,,,,704.6507367000013,None,0.0017899199883686379,1.0017899199883686,0,Stimuli_3D\easy\02_50_R.jpg,705.6539576000068,None,up,0.45571880000352394,705.6539576000068,None,None,None,001,001,A,2022_Mar_07_1814,270300_Mental_Rotation,2021.2.3,144.17781161261973,
,,,,12,0,12,0,,,,,,,,,,,,,,,,,,,,,,,,,,,,,,,,,,,,,,706.1299567000096,None,0.004670759997679852,1.0046707599976799,1,Stimuli_3D\easy\02_100.jpg,707.1336728000024,None,up,0.9260940999956802,707.1336728000024,None,None,None,001,001,A,2022_Mar_07_1814,270300_Mental_Rotation,2021.2.3,144.17781161261973,
,,,,13,0,13,0,,,,,,,,,,,,,,,,,,,,,,,,,,,,,,,,,,,,,,708.0969858000026,None,0.004891299991868436,1.0048912999918684,1,Stimuli_3D\easy\02_100_R.jpg,709.0994049000001,None,down,0.6229670000029728,709.0994049000001,None,None,None,001,001,A,2022_Mar_07_1814,270300_Mental_Rotation,2021.2.3,144.17781161261973,
,,,,14,0,14,0,,,,,,,,,,,,,,,,,,,,,,,,,,,,,,,,,,,,,,709.756364300003,None,0.006720299992593937,1.006720299992594,1,Stimuli_3D\easy\02_150.jpg,710.763246100003,None,up,0.6591970000008587,710.763246100003,None,None,None,001,001,A,2022_Mar_07_1814,270300_Mental_Rotation,2021.2.3,144.17781161261973,
,,,,15,0,15,0,,,,,,,,,,,,,,,,,,,,,,,,,,,,,,,,,,,,,,711.466622500011,None,0.0015705999976489693,1.001570599997649,1,Stimuli_3D\easy\02_150_R.jpg,712.4697305000009,None,down,0.989468300002045,712.4697305000009,None,None,None,001,001,A,2022_Mar_07_1814,270300_Mental_Rotation,2021.2.3,144.17781161261973,
,,,,16,0,16,0,,,,,,,,,,,,,,,,,,,,,,,,,,,,,,,,,,,,,,713.4795110000123,None,0.005697460001101717,1.0056974600011017,1,Stimuli_3D\easy\03_0.jpg,714.4821273000125,None,up,0.6025651000090875,714.4821273000125,None,None,None,001,001,A,2022_Mar_07_1814,270300_Mental_Rotation,2021.2.3,144.17781161261973,
,,,,17,0,17,0,,,,,,,,,,,,,,,,,,,,,,,,,,,,,,,,,,,,,,715.1230883000098,None,0.005564599996432662,1.0055645999964327,1,Stimuli_3D\easy\03_0_R.jpg,716.1264206000051,None,down,0.6959219999989728,716.1264206000051,None,None,None,001,001,A,2022_Mar_07_1814,270300_Mental_Rotation,2021.2.3,144.17781161261973,
,,,,18,0,18,0,,,,,,,,,,,,,,,,,,,,,,,,,,,,,,,,,,,,,,716.859093600011,None,0.004678099998272955,1.004678099998273,1,Stimuli_3D\easy\03_50.jpg,717.8621380000113,None,up,0.7846187999966787,717.8621380000113,None,None,None,001,001,A,2022_Mar_07_1814,270300_Mental_Rotation,2021.2.3,144.17781161261973,
,,,,19,0,19,0,,,,,,,,,,,,,,,,,,,,,,,,,,,,,,,,,,,,,,718.6647434000042,None,0.006910360010806471,1.0069103600108065,1,Stimuli_3D\easy\03_50_R.jpg,719.6694864000019,None,down,0.539989400000195,719.6694864000019,None,None,None,001,001,A,2022_Mar_07_1814,270300_Mental_Rotation,2021.2.3,144.17781161261973,
,,,,20,0,20,0,,,,,,,,,,,,,,,,,,,,,,,,,,,,,,,,,,,,,,720.2403024000087,None,0.004454180001630448,1.0044541800016304,1,Stimuli_3D\easy\03_100.jpg,721.2434422000078,None,up,0.5781344999995781,721.2434422000078,None,721.8525702000043,None,001,001,A,2022_Mar_07_1814,270300_Mental_Rotation,2021.2.3,144.17781161261973,
,,,,21,0,21,0,,,,,,,,,,,,,,,,,,,,,,,,,,,,,,,,,,,,,,724.8577540000115,None,0.0006742199911968783,1.0006742199911969,0,Stimuli_3D\easy\03_100_R.jpg,725.8615875000105,None,up,0.3104048000095645,725.8615875000105,None,None,None,001,001,A,2022_Mar_07_1814,270300_Mental_Rotation,2021.2.3,144.17781161261973,
,,,,22,0,22,0,,,,,,,,,,,,,,,,,,,,,,,,,,,,,,,,,,,,,,726.1993363000074,None,0.006806780002079904,1.00680678000208,0,Stimuli_3D\easy\03_150.jpg,727.2028206000105,None,down,0.31940880000183824,727.2028206000105,None,None,None,001,001,A,2022_Mar_07_1814,270300_Mental_Rotation,2021.2.3,144.17781161261973,
,,,,23,0,23,0,,,,,,,,,,,,,,,,,,,,,,,,,,,,,,,,,,,,,,727.5542540000024,None,0.006355499994242564,1.0063554999942426,0,Stimuli_3D\easy\03_150_R.jpg,728.5579183000082,None,up,0.18933120000292547,728.5579183000082,None,None,None,001,001,A,2022_Mar_07_1814,270300_Mental_Rotation,2021.2.3,144.17781161261973,
,,,,24,0,24,0,,,,,,,,,,,,,,,,,,,,,,,,,,,,,,,,,,,,,,728.7874685999996,None,0.005364499986171722,1.0053644999861717,0,Stimuli_3D\easy\04_0.jpg,729.7913480999996,None,down,0.0934895999962464,729.7913480999996,None,None,None,001,001,A,2022_Mar_07_1814,270300_Mental_Rotation,2021.2.3,144.17781161261973,
,,,,25,0,25,0,,,,,,,,,,,,,,,,,,,,,,,,,,,,,,,,,,,,,,729.9111588000087,None,0.0031859600130701438,1.0031859600130701,0,Stimuli_3D\easy\04_0_R.jpg,730.9166268000117,None,up,0.14318529999582097,730.9166268000117,None,None,None,001,001,A,2022_Mar_07_1814,270300_Mental_Rotation,2021.2.3,144.17781161261973,
,,,,26,0,26,0,,,,,,,,,,,,,,,,,,,,,,,,,,,,,,,,,,,,,,731.094233900003,None,0.0012744799896609038,1.001274479989661,0,Stimuli_3D\easy\04_50.jpg,732.097851700004,None,down,0.16192379999847617,732.097851700004,None,None,None,001,001,A,2022_Mar_07_1814,270300_Mental_Rotation,2021.2.3,144.17781161261973,
,,,,27,0,27,0,,,,,,,,,,,,,,,,,,,,,,,,,,,,,,,,,,,,,,732.2911322,None,0.0017135800007963553,1.0017135800007964,0,Stimuli_3D\easy\04_50_R.jpg,733.2952889000007,None,up,0.07700600000680424,733.2952889000007,None,None,None,001,001,A,2022_Mar_07_1814,270300_Mental_Rotation,2021.2.3,144.17781161261973,
,,,,28,0,28,0,,,,,,,,,,,,,,,,,,,,,,,,,,,,,,,,,,,,,,733.4123281000066,None,0.0037355999957071617,1.0037355999957072,0,Stimuli_3D\easy\04_100.jpg,734.4165037000057,None,down,0.2181776999932481,734.4165037000057,None,None,None,001,001,A,2022_Mar_07_1814,270300_Mental_Rotation,2021.2.3,144.17781161261973,
,,,,29,0,29,0,,,,,,,,,,,,,,,,,,,,,,,,,,,,,,,,,,,,,,734.6671504000115,None,0.0011540800041984767,1.0011540800041985,0,Stimuli_3D\easy\04_100_R.jpg,735.6706593999988,None,up,0.22654669999610633,735.6706593999988,None,None,None,001,001,A,2022_Mar_07_1814,270300_Mental_Rotation,2021.2.3,144.17781161261973,
,,,,30,0,30,0,,,,,,,,,,,,,,,,,,,,,,,,,,,,,,,,,,,,,,735.9179910000094,None,0.0063262600160669535,1.006326260016067,0,Stimuli_3D\easy\04_150.jpg,736.9225638000062,None,down,0.21156609999889042,736.9225638000062,None,737.1579064000107,None,001,001,A,2022_Mar_07_1814,270300_Mental_Rotation,2021.2.3,144.17781161261973,
,,,,31,0,31,0,,,,,,,,,,,,,,,,,,,,,,,,,,,,,,,,,,,,,,740.1611809000024,None,0.0005088199977762997,1.0005088199977763,1,Stimuli_3D\easy\04_150_R.jpg,741.1648279000074,None,down,2.8570910999987973,741.1648279000074,None,None,None,001,001,A,2022_Mar_07_1814,270300_Mental_Rotation,2021.2.3,144.17781161261973,
,,,,32,0,32,0,,,,,,,,,,,,,,,,,,,,,,,,,,,,,,,,,,,,,,744.0551231999998,None,0.00015908000932540745,1.0001590800093254,1,Stimuli_3D\easy\05_0.jpg,745.0598906000087,None,up,0.7373435000044992,745.0598906000087,None,None,None,001,001,A,2022_Mar_07_1814,270300_Mental_Rotation,2021.2.3,144.17781161261973,
,,,,33,0,33,0,,,,,,,,,,,,,,,,,,,,,,,,,,,,,,,,,,,,,,745.8348348,None,0.005397400003857911,1.005397400003858,1,Stimuli_3D\easy\05_0_R.jpg,746.8397404999996,None,down,0.4948716000071727,746.8397404999996,None,None,None,001,001,A,2022_Mar_07_1814,270300_Mental_Rotation,2021.2.3,144.17781161261973,
,,,,34,0,34,0,,,,,,,,,,,,,,,,,,,,,,,,,,,,,,,,,,,,,,747.3697899000108,None,0.0024649799888720736,1.002464979988872,1,Stimuli_3D\easy\05_50.jpg,748.3727129000035,None,up,0.23642799998924602,748.3727129000035,None,None,None,001,001,A,2022_Mar_07_1814,270300_Mental_Rotation,2021.2.3,144.17781161261973,
,,,,35,0,35,0,,,,,,,,,,,,,,,,,,,,,,,,,,,,,,,,,,,,,,748.6277380000101,None,0.006271460006246343,1.0062714600062463,1,Stimuli_3D\easy\05_50_R.jpg,749.6304061999981,None,down,0.24180709999927785,749.6304061999981,None,None,None,001,001,A,2022_Mar_07_1814,270300_Mental_Rotation,2021.2.3,144.17781161261973,
,,,,36,0,36,0,,,,,,,,,,,,,,,,,,,,,,,,,,,,,,,,,,,,,,749.9081226000126,None,0.003937500005122274,1.0039375000051223,1,Stimuli_3D\easy\05_100.jpg,750.9108836000087,None,up,0.31124280000221916,750.9108836000087,None,None,None,001,001,A,2022_Mar_07_1814,270300_Mental_Rotation,2021.2.3,144.17781161261973,
,,,,37,0,37,0,,,,,,,,,,,,,,,,,,,,,,,,,,,,,,,,,,,,,,751.2537808000052,None,0.001101879999623634,1.0011018799996236,1,Stimuli_3D\easy\05_100_R.jpg,752.2575648000056,None,down,0.18913610000163317,752.2575648000056,None,None,None,001,001,A,2022_Mar_07_1814,270300_Mental_Rotation,2021.2.3,144.17781161261973,
,,,,38,0,38,0,,,,,,,,,,,,,,,,,,,,,,,,,,,,,,,,,,,,,,752.4686568000034,None,0.00542965998465661,1.0054296599846566,1,Stimuli_3D\easy\05_150.jpg,753.4728311000072,None,up,0.1616628000047058,753.4728311000072,None,None,None,001,001,A,2022_Mar_07_1814,270300_Mental_Rotation,2021.2.3,144.17781161261973,
,,,,39,0,39,0,,,,,,,,,,,,,,,,,,,,,,,,,,,,,,,,,,,,,,753.6687515000085,None,0.006268400000408292,1.0062684000004083,1,Stimuli_3D\easy\05_150_R.jpg,754.6712406000006,None,down,0.06294810000690632,754.6712406000006,None,None,None,001,001,A,2022_Mar_07_1814,270300_Mental_Rotation,2021.2.3,144.17781161261973,
,,,,40,0,40,0,,,,,,,,,,,,,,,,,,,,,,,,,,,,,,,,,,,,,,754.7611048000108,None,0.003433060002862476,1.0034330600028625,1,Stimuli_3D\easy\06_0.jpg,755.7638203000097,None,up,0.5584247999940999,755.7638203000097,None,756.3520990000106,None,001,001,A,2022_Mar_07_1814,270300_Mental_Rotation,2021.2.3,144.17781161261973,
,,,,41,0,41,0,,,,,,,,,,,,,,,,,,,,,,,,,,,,,,,,,,,,,,759.3600739000103,None,0.0006128200038801879,1.0006128200038802,1,Stimuli_3D\easy\06_0_R.jpg,760.364140500009,None,down,0.5084831999993185,760.364140500009,None,None,None,001,001,A,2022_Mar_07_1814,270300_Mental_Rotation,2021.2.3,144.17781161261973,
,,,,42,0,42,0,,,,,,,,,,,,,,,,,,,,,,,,,,,,,,,,,,,,,,760.9093626000104,None,0.0049938000011025,1.0049938000011025,1,Stimuli_3D\easy\06_50.jpg,761.9124011000094,None,up,0.18469599999662023,761.9124011000094,None,None,None,001,001,A,2022_Mar_07_1814,270300_Mental_Rotation,2021.2.3,144.17781161261973,
,,,,43,0,43,0,,,,,,,,,,,,,,,,,,,,,,,,,,,,,,,,,,,,,,762.1255523,None,0.002938780002295971,1.002938780002296,1,Stimuli_3D\easy\06_50_R.jpg,763.1296796000097,None,down,0.4925799000047846,763.1296796000097,None,None,None,001,001,A,2022_Mar_07_1814,270300_Mental_Rotation,2021.2.3,144.17781161261973,
,,,,44,0,44,0,,,,,,,,,,,,,,,,,,,,,,,,,,,,,,,,,,,,,,763.6538685999985,None,0.00686939999286551,1.0068693999928655,1,Stimuli_3D\easy\06_100.jpg,764.6571458000108,None,up,0.1401499000057811,764.6571458000108,None,None,None,001,001,A,2022_Mar_07_1814,270300_Mental_Rotation,2021.2.3,144.17781161261973,
,,,,45,0,45,0,,,,,,,,,,,,,,,,,,,,,,,,,,,,,,,,,,,,,,764.83838500001,None,0.00472190001164563,1.0047219000116456,1,Stimuli_3D\easy\06_100_R.jpg,765.8414850000117,None,down,0.19345740000426304,765.8414850000117,None,None,None,001,001,A,2022_Mar_07_1814,270300_Mental_Rotation,2021.2.3,144.17781161261973,
,,,,46,0,46,0,,,,,,,,,,,,,,,,,,,,,,,,,,,,,,,,,,,,,,766.073327200007,None,0.004703900005551986,1.004703900005552,1,Stimuli_3D\easy\06_150.jpg,767.0759172000107,None,up,0.1604349999979604,767.0759172000107,None,None,None,001,001,A,2022_Mar_07_1814,270300_Mental_Rotation,2021.2.3,144.17781161261973,
,,,,47,0,47,0,,,,,,,,,,,,,,,,,,,,,,,,,,,,,,,,,,,,,,767.2696568000101,None,4.657999670598656e-05,1.000046579996706,1,Stimuli_3D\easy\06_150_R.jpg,768.2726229000109,None,down,0.13682080000580754,768.2726229000109,None,None,None,001,001,A,2022_Mar_07_1814,270300_Mental_Rotation,2021.2.3,144.17781161261973,
,,,,48,0,48,0,,,,,,,,,,,,,,,,,,,,,,,,,,,,,,,,,,,,,,768.4426045,None,0.002269379998324439,1.0022693799983244,1,Stimuli_3D\easy\07_0.jpg,769.4451524000033,None,up,0.08992870000656694,769.4451524000033,None,None,None,001,001,A,2022_Mar_07_1814,270300_Mental_Rotation,2021.2.3,144.17781161261973,
,,,,49,0,49,0,,,,,,,,,,,,,,,,,,,,,,,,,,,,,,,,,,,,,,769.5756548000063,None,0.0017191000079037622,1.0017191000079038,1,Stimuli_3D\easy\07_0_R.jpg,770.5784626000095,None,down,0.16888870000548195,770.5784626000095,None,None,None,001,001,A,2022_Mar_07_1814,270300_Mental_Rotation,2021.2.3,144.17781161261973,
,,,,50,0,50,0,,,,,,,,,,,,,,,,,,,,,,,,,,,,,,,,,,,,,,770.786920700004,None,0.0035848999832523987,1.0035848999832524,1,Stimuli_3D\easy\07_50.jpg,771.7902436000004,None,up,0.18206219999410678,771.7902436000004,None,771.9983500000089,None,001,001,A,2022_Mar_07_1814,270300_Mental_Rotation,2021.2.3,144.17781161261973,
,,,,51,0,51,0,,,,,,,,,,,,,,,,,,,,,,,,,,,,,,,,,,,,,,775.0040015999984,None,0.0001766199857229367,1.000176619985723,1,Stimuli_3D\easy\07_50_R.jpg,776.0078106000001,None,down,1.6270827999978792,776.0078106000001,None,None,None,001,001,A,2022_Mar_07_1814,270300_Mental_Rotation,2021.2.3,144.17781161261973,
,,,,52,0,52,0,,,,,,,,,,,,,,,,,,,,,,,,,,,,,,,,,,,,,,777.6708599999984,None,0.0058022999874083325,1.0058022999874083,1,Stimuli_3D\easy\07_100.jpg,778.6780164000083,None,up,0.6443519000022206,778.6780164000083,None,None,None,001,001,A,2022_Mar_07_1814,270300_Mental_Rotation,2021.2.3,144.17781161261973,
,,,,53,0,53,0,,,,,,,,,,,,,,,,,,,,,,,,,,,,,,,,,,,,,,779.3596171000099,None,0.005892799992579967,1.00589279999258,1,Stimuli_3D\easy\07_100_R.jpg,780.3634746000025,None,down,1.30888500000583,780.3634746000025,None,None,None,001,001,A,2022_Mar_07_1814,270300_Mental_Rotation,2021.2.3,144.17781161261973,
,,,,54,0,54,0,,,,,,,,,,,,,,,,,,,,,,,,,,,,,,,,,,,,,,781.7061819000082,None,0.0004396799922687933,1.0004396799922688,1,Stimuli_3D\easy\07_150.jpg,782.7093072999996,None,up,0.2878649000049336,782.7093072999996,None,None,None,001,001,A,2022_Mar_07_1814,270300_Mental_Rotation,2021.2.3,144.17781161261973,
,,,,55,0,55,0,,,,,,,,,,,,,,,,,,,,,,,,,,,,,,,,,,,,,,783.0292561000097,None,0.006312799989245832,1.0063127999892458,1,Stimuli_3D\easy\07_150_R.jpg,784.0320113000053,None,down,0.4395600999996532,784.0320113000053,None,None,None,001,001,A,2022_Mar_07_1814,270300_Mental_Rotation,2021.2.3,144.17781161261973,
,,,,56,0,56,0,,,,,,,,,,,,,,,,,,,,,,,,,,,,,,,,,,,,,,784.4900655000092,None,0.0062370600062422454,1.0062370600062422,1,Stimuli_3D\easy\08_0.jpg,785.4929440000124,None,up,0.16673320000700187,785.4929440000124,None,None,None,001,001,A,2022_Mar_07_1814,270300_Mental_Rotation,2021.2.3,144.17781161261973,
,,,,57,0,57,0,,,,,,,,,,,,,,,,,,,,,,,,,,,,,,,,,,,,,,785.6935616999981,None,0.005577999996603467,1.0055779999966035,1,Stimuli_3D\easy\08_0_R.jpg,786.6988983000047,None,down,0.2608393000118667,786.6988983000047,None,None,None,001,001,A,2022_Mar_07_1814,270300_Mental_Rotation,2021.2.3,144.17781161261973,
,,,,58,0,58,0,,,,,,,,,,,,,,,,,,,,,,,,,,,,,,,,,,,,,,786.9873747000092,None,0.0036215800064383075,1.0036215800064383,1,Stimuli_3D\easy\08_50.jpg,787.9902798000112,None,up,0.19439049999346025,787.9902798000112,None,None,None,001,001,A,2022_Mar_07_1814,270300_Mental_Rotation,2021.2.3,144.17781161261973,
,,,,59,0,59,0,,,,,,,,,,,,,,,,,,,,,,,,,,,,,,,,,,,,,,788.2237757000112,None,0.005996899999445304,1.0059968999994453,1,Stimuli_3D\easy\08_50_R.jpg,789.2273596000014,None,down,0.20751880000170786,789.2273596000014,None,None,None,001,001,A,2022_Mar_07_1814,270300_Mental_Rotation,2021.2.3,144.17781161261973,
,,,,60,0,60,0,,,,,,,,,,,,,,,,,,,,,,,,,,,,,,,,,,,,,,789.4746034999989,None,0.006014799990225583,1.0060147999902256,1,Stimuli_3D\easy\08_100.jpg,790.4779208000109,None,up,0.2318271999974968,790.4779208000109,None,790.7502333000011,None,001,001,A,2022_Mar_07_1814,270300_Mental_Rotation,2021.2.3,144.17781161261973,
,,,,61,0,61,0,,,,,,,,,,,,,,,,,,,,,,,,,,,,,,,,,,,,,,793.7584180000122,None,0.00022121999063529074,1.0002212199906353,1,Stimuli_3D\easy\08_100_R.jpg,794.7617969999992,None,down,0.3747096999868518,794.7617969999992,None,None,None,001,001,A,2022_Mar_07_1814,270300_Mental_Rotation,2021.2.3,144.17781161261973,
,,,,62,0,62,0,,,,,,,,,,,,,,,,,,,,,,,,,,,,,,,,,,,,,,795.1794063999987,None,0.003995899998699315,1.0039958999986993,1,Stimuli_3D\easy\08_150.jpg,796.1816732000007,None,up,0.17790520000562537,796.1816732000007,None,None,None,001,001,A,2022_Mar_07_1814,270300_Mental_Rotation,2021.2.3,144.17781161261973,
,,,,63,0,63,0,,,,,,,,,,,,,,,,,,,,,,,,,,,,,,,,,,,,,,796.3885800999997,None,0.0008945600129663944,1.0008945600129664,1,Stimuli_3D\easy\08_150_R.jpg,797.3930873000063,None,down,0.05351889999292325,797.3930873000063,None,None,None,001,001,A,2022_Mar_07_1814,270300_Mental_Rotation,2021.2.3,144.17781161261973,
,,,,64,0,64,0,,,,,,,,,,,,,,,,,,,,,,,,,,,,,,,,,,,,,,797.4666446000047,None,0.0005218400037847459,1.0005218400037847,1,Stimuli_3D\easy\09_0.jpg,798.4706794000085,None,up,0.11418210000556428,798.4706794000085,None,None,None,001,001,A,2022_Mar_07_1814,270300_Mental_Rotation,2021.2.3,144.17781161261973,
,,,,65,0,65,0,,,,,,,,,,,,,,,,,,,,,,,,,,,,,,,,,,,,,,798.6185702000075,None,0.00546929998381529,1.0054692999838153,1,Stimuli_3D\easy\09_0_R.jpg,799.6210668999993,None,down,0.12611899999319576,799.6210668999993,None,None,None,001,001,A,2022_Mar_07_1814,270300_Mental_Rotation,2021.2.3,144.17781161261973,
,,,,66,0,66,0,,,,,,,,,,,,,,,,,,,,,,,,,,,,,,,,,,,,,,799.7873723000084,None,0.00325660000089556,1.0032566000008956,1,Stimuli_3D\easy\09_50.jpg,800.7917911000113,None,up,0.0925996000005398,800.7917911000113,None,None,None,001,001,A,2022_Mar_07_1814,270300_Mental_Rotation,2021.2.3,144.17781161261973,
,,,,67,0,67,0,,,,,,,,,,,,,,,,,,,,,,,,,,,,,,,,,,,,,,800.9250324000022,None,0.0022904999932507053,1.0022904999932507,1,Stimuli_3D\easy\09_50_R.jpg,801.9291312999994,None,down,0.018054400003165938,801.9291312999994,None,None,None,001,001,A,2022_Mar_07_1814,270300_Mental_Rotation,2021.2.3,144.17781161261973,
,,,,68,0,68,0,,,,,,,,,,,,,,,,,,,,,,,,,,,,,,,,,,,,,,801.9807606000104,None,0.0022956799948588014,1.0022956799948588,1,Stimuli_3D\easy\09_100.jpg,802.990667200007,None,up,0.09406180000223685,802.990667200007,None,None,None,001,001,A,2022_Mar_07_1814,270300_Mental_Rotation,2021.2.3,144.17781161261973,
,,,,69,0,69,0,,,,,,,,,,,,,,,,,,,,,,,,,,,,,,,,,,,,,,803.1178389000124,None,0.00518559999181889,1.005185599991819,1,Stimuli_3D\easy\09_100_R.jpg,804.1218787000107,None,down,0.06251639999391045,804.1218787000107,None,None,None,001,001,A,2022_Mar_07_1814,270300_Mental_Rotation,2021.2.3,144.17781161261973,
,,,,70,0,70,0,,,,,,,,,,,,,,,,,,,,,,,,,,,,,,,,,,,,,,804.2070451000036,None,0.0028054599970346317,1.0028054599970346,1,Stimuli_3D\easy\09_150.jpg,805.2094663000025,None,up,0.1628430999990087,805.2094663000025,None,805.4151920000004,None,001,001,A,2022_Mar_07_1814,270300_Mental_Rotation,2021.2.3,144.17781161261973,
,,,,71,0,71,0,,,,,,,,,,,,,,,,,,,,,,,,,,,,,,,,,,,,,,808.4242590000067,None,0.006787639984395355,1.0067876399843954,0,Stimuli_3D\easy\09_150_R.jpg,809.4275152000046,None,up,0.5698856999952113,809.4275152000046,None,None,None,001,001,A,2022_Mar_07_1814,270300_Mental_Rotation,2021.2.3,144.17781161261973,
,,,,72,0,72,0,,,,,,,,,,,,,,,,,,,,,,,,,,,,,,,,,,,,,,810.0307134000032,None,0.005656800014548935,1.005656800014549,1,Stimuli_3D\easy\10_0.jpg,811.0335802000045,None,up,0.9037041000119643,811.0335802000045,None,None,None,001,001,A,2022_Mar_07_1814,270300_Mental_Rotation,2021.2.3,144.17781161261973,
,,,,73,0,73,0,,,,,,,,,,,,,,,,,,,,,,,,,,,,,,,,,,,,,,811.9576341000065,None,0.0003563399950508028,1.0003563399950508,1,Stimuli_3D\easy\10_0_R.jpg,812.9620943000045,None,down,0.4477894000010565,812.9620943000045,None,None,None,001,001,A,2022_Mar_07_1814,270300_Mental_Rotation,2021.2.3,144.17781161261973,
,,,,74,0,74,0,,,,,,,,,,,,,,,,,,,,,,,,,,,,,,,,,,,,,,813.4430576000013,None,0.005144900002051145,1.0051449000020511,1,Stimuli_3D\easy\10_50.jpg,814.4464309000032,None,up,0.20018299999355804,814.4464309000032,None,None,None,001,001,A,2022_Mar_07_1814,270300_Mental_Rotation,2021.2.3,144.17781161261973,
,,,,75,0,75,0,,,,,,,,,,,,,,,,,,,,,,,,,,,,,,,,,,,,,,814.6659381000063,None,0.00022073998115956783,1.0002207399811596,1,Stimuli_3D\easy\10_50_R.jpg,815.6696419000073,None,down,0.17750340000202414,815.6696419000073,None,None,None,001,001,A,2022_Mar_07_1814,270300_Mental_Rotation,2021.2.3,144.17781161261973,
,,,,76,0,76,0,,,,,,,,,,,,,,,,,,,,,,,,,,,,,,,,,,,,,,815.88460640001,None,0.0006695799966109917,1.000669579996611,1,Stimuli_3D\easy\10_100.jpg,816.8882153000013,None,up,0.07132109999656677,816.8882153000013,None,None,None,001,001,A,2022_Mar_07_1814,270300_Mental_Rotation,2021.2.3,144.17781161261973,
,,,,77,0,77,0,,,,,,,,,,,,,,,,,,,,,,,,,,,,,,,,,,,,,,816.9910743000073,None,0.0032542800036026165,1.0032542800036026,1,Stimuli_3D\easy\10_100_R.jpg,817.9976148999995,None,down,0.18718629999784753,817.9976148999995,None,None,None,001,001,A,2022_Mar_07_1814,270300_Mental_Rotation,2021.2.3,144.17781161261973,
,,,,78,0,78,0,,,,,,,,,,,,,,,,,,,,,,,,,,,,,,,,,,,,,,818.2176718000119,None,0.005160000015166588,1.0051600000151666,1,Stimuli_3D\easy\10_150.jpg,819.2205341000081,None,up,0.12659510000958107,819.2205341000081,None,None,None,001,001,A,2022_Mar_07_1814,270300_Mental_Rotation,2021.2.3,144.17781161261973,
,,,,79,0,79,0,,,,,,,,,,,,,,,,,,,,,,,,,,,,,,,,,,,,,,819.3688422999985,None,0.006652960000792518,1.0066529600007925,1,Stimuli_3D\easy\10_150_R.jpg,820.3720322000008,None,down,0.08734330000879709,820.3720322000008,None,None,None,001,001,A,2022_Mar_07_1814,270300_Mental_Rotation,2021.2.3,144.17781161261973,
,,,,80,0,80,0,,,,,,,,,,,,,,,,,,,,,,,,,,,,,,,,,,,,,,820.4925453000033,None,0.00038428000698331743,1.0003842800069833,1,Stimuli_3D\easy\11_0.jpg,821.4950392000028,None,up,0.15173060000233818,821.4950392000028,None,821.6727242000052,None,001,001,A,2022_Mar_07_1814,270300_Mental_Rotation,2021.2.3,144.17781161261973,
,,,,81,0,81,0,,,,,,,,,,,,,,,,,,,,,,,,,,,,,,,,,,,,,,824.6778573000047,None,0.000645819993223995,1.000645819993224,1,Stimuli_3D\easy\11_0_R.jpg,825.6810996999993,None,down,1.3279343000031076,825.6810996999993,None,None,None,001,001,A,2022_Mar_07_1814,270300_Mental_Rotation,2021.2.3,144.17781161261973,
,,,,82,0,82,0,,,,,,,,,,,,,,,,,,,,,,,,,,,,,,,,,,,,,,827.0260225000093,None,0.000126240003737621,1.0001262400037376,1,Stimuli_3D\easy\11_50.jpg,828.0292446000094,None,up,0.4428704000019934,828.0292446000094,None,None,None,001,001,A,2022_Mar_07_1814,270300_Mental_Rotation,2021.2.3,144.17781161261973,
,,,,83,0,83,0,,,,,,,,,,,,,,,,,,,,,,,,,,,,,,,,,,,,,,828.513529200005,None,0.003999299995484762,1.0039992999954848,1,Stimuli_3D\easy\11_50_R.jpg,829.5168054000096,None,down,0.5176488000142854,829.5168054000096,None,None,None,001,001,A,2022_Mar_07_1814,270300_Mental_Rotation,2021.2.3,144.17781161261973,
,,,,84,0,84,0,,,,,,,,,,,,,,,,,,,,,,,,,,,,,,,,,,,,,,830.0694261000026,None,0.0016327799967257306,1.0016327799967257,1,Stimuli_3D\easy\11_100.jpg,831.0718336999998,None,up,0.4379901000065729,831.0718336999998,None,None,None,001,001,A,2022_Mar_07_1814,270300_Mental_Rotation,2021.2.3,144.17781161261973,
,,,,85,0,85,0,,,,,,,,,,,,,,,,,,,,,,,,,,,,,,,,,,,,,,831.5370110000076,None,0.0036879600083921105,1.003687960008392,1,Stimuli_3D\easy\11_100_R.jpg,832.5415978000092,None,down,0.5819813999987673,832.5415978000092,None,None,None,001,001,A,2022_Mar_07_1814,270300_Mental_Rotation,2021.2.3,144.17781161261973,
,,,,86,0,86,0,,,,,,,,,,,,,,,,,,,,,,,,,,,,,,,,,,,,,,833.1593125000072,None,0.00448560000222642,1.0044856000022264,1,Stimuli_3D\easy\11_150.jpg,834.1670448000077,None,up,0.25533099999302067,834.1670448000077,None,None,None,001,001,A,2022_Mar_07_1814,270300_Mental_Rotation,2021.2.3,144.17781161261973,
,,,,87,0,87,0,,,,,,,,,,,,,,,,,,,,,,,,,,,,,,,,,,,,,,834.4578000000038,None,0.002909699993324466,1.0029096999933245,1,Stimuli_3D\easy\11_150_R.jpg,835.4619358000054,None,down,0.2471984000003431,835.4619358000054,None,None,None,001,001,A,2022_Mar_07_1814,270300_Mental_Rotation,2021.2.3,144.17781161261973,
,,,,88,0,88,0,,,,,,,,,,,,,,,,,,,,,,,,,,,,,,,,,,,,,,835.7263562000007,None,0.006829160018241964,1.006829160018242,1,Stimuli_3D\easy\12_0.jpg,836.7290439000062,None,up,0.3932109000015771,836.7290439000062,None,None,None,001,001,A,2022_Mar_07_1814,270300_Mental_Rotation,2021.2.3,144.17781161261973,
,,,,89,0,89,0,,,,,,,,,,,,,,,,,,,,,,,,,,,,,,,,,,,,,,837.1637836000009,None,0.0013918000040575862,1.0013918000040576,1,Stimuli_3D\easy\12_0_R.jpg,838.1671154000069,None,down,0.30500279999978375,838.1671154000069,None,None,None,001,001,A,2022_Mar_07_1814,270300_Mental_Rotation,2021.2.3,144.17781161261973,
,,,,90,0,90,0,,,,,,,,,,,,,,,,,,,,,,,,,,,,,,,,,,,,,,838.511098700008,None,0.00572200000169687,1.0057220000016969,1,Stimuli_3D\easy\12_50.jpg,839.5151564000116,None,up,0.1948084000032395,839.5151564000116,None,839.7507024000079,None,001,001,A,2022_Mar_07_1814,270300_Mental_Rotation,2021.2.3,144.17781161261973,
,,,,91,0,91,0,,,,,,,,,,,,,,,,,,,,,,,,,,,,,,,,,,,,,,842.7596748000069,None,0.0004182199918432161,1.0004182199918432,1,Stimuli_3D\easy\12_50_R.jpg,843.7631318000058,None,down,0.44641850001062267,843.7631318000058,None,None,None,001,001,A,2022_Mar_07_1814,270300_Mental_Rotation,2021.2.3,144.17781161261973,
,,,,92,0,92,0,,,,,,,,,,,,,,,,,,,,,,,,,,,,,,,,,,,,,,844.244503599999,None,0.005259900004602969,1.005259900004603,1,Stimuli_3D\easy\12_100.jpg,845.250600600004,None,up,0.1461635000014212,845.250600600004,None,None,None,001,001,A,2022_Mar_07_1814,270300_Mental_Rotation,2021.2.3,144.17781161261973,
,,,,93,0,93,0,,,,,,,,,,,,,,,,,,,,,,,,,,,,,,,,,,,,,,845.4296714000084,None,0.004897480015642941,1.004897480015643,1,Stimuli_3D\easy\12_100_R.jpg,846.4383921000117,None,down,0.15824930000235327,846.4383921000117,None,None,None,001,001,A,2022_Mar_07_1814,270300_Mental_Rotation,2021.2.3,144.17781161261973,
,,,,94,0,94,0,,,,,,,,,,,,,,,,,,,,,,,,,,,,,,,,,,,,,,846.618416199999,None,0.0029961600084789097,1.002996160008479,1,Stimuli_3D\easy\12_150.jpg,847.6258395000041,None,up,0.2335081000055652,847.6258395000041,None,None,None,001,001,A,2022_Mar_07_1814,270300_Mental_Rotation,2021.2.3,144.17781161261973,
,,,,95,0,95,0,,,,,,,,,,,,,,,,,,,,,,,,,,,,,,,,,,,,,,847.8787722999987,None,0.0050664600130403414,1.0050664600130403,1,Stimuli_3D\easy\12_150_R.jpg,848.8820089000073,None,down,0.13972010000725277,848.8820089000073,None,None,None,001,001,A,2022_Mar_07_1814,270300_Mental_Rotation,2021.2.3,144.17781161261973,
,,,,96,0,96,0,,,,,,,,,,,,,,,,,,,,,,,,,,,,,,,,,,,,,,849.0439677000104,None,0.0062214599893195555,1.0062214599893196,1,Stimuli_3D\easy\13_0.jpg,850.0489419000078,None,up,0.11080179999407846,850.0489419000078,None,None,None,001,001,A,2022_Mar_07_1814,270300_Mental_Rotation,2021.2.3,144.17781161261973,
,,,,97,0,97,0,,,,,,,,,,,,,,,,,,,,,,,,,,,,,,,,,,,,,,850.1944790000125,None,0.004691299996920861,1.0046912999969209,1,Stimuli_3D\easy\13_0_R.jpg,851.2008807000093,None,down,0.10872519999975339,851.2008807000093,None,None,None,001,001,A,2022_Mar_07_1814,270300_Mental_Rotation,2021.2.3,144.17781161261973,
,,,,98,0,98,0,,,,,,,,,,,,,,,,,,,,,,,,,,,,,,,,,,,,,,851.3431598000025,None,0.004234199994243681,1.0042341999942437,1,Stimuli_3D\easy\13_50.jpg,852.3473701000039,None,up,0.15018399999826215,852.3473701000039,None,None,None,001,001,A,2022_Mar_07_1814,270300_Mental_Rotation,2021.2.3,144.17781161261973,
,,,,99,0,99,0,,,,,,,,,,,,,,,,,,,,,,,,,,,,,,,,,,,,,,852.5337422000011,None,0.0059603000117931515,1.0059603000117932,1,Stimuli_3D\easy\13_50_R.jpg,853.5414042000048,None,down,0.055324400003883056,853.5414042000048,None,None,None,001,001,A,2022_Mar_07_1814,270300_Mental_Rotation,2021.2.3,144.17781161261973,
,,,,100,0,100,0,,,,,,,,,,,,,,,,,,,,,,,,,,,,,,,,,,,,,,853.6289415000065,None,0.005325680001988076,1.005325680001988,1,Stimuli_3D\easy\13_100.jpg,854.6321201000101,None,up,0.17748610000126064,854.6321201000101,None,854.8475795999984,None,001,001,A,2022_Mar_07_1814,270300_Mental_Rotation,2021.2.3,144.17781161261973,
,,,,101,0,101,0,,,,,,,,,,,,,,,,,,,,,,,,,,,,,,,,,,,,,,857.8631920000043,None,0.0018555400019977242,1.0018555400019977,1,Stimuli_3D\easy\13_100_R.jpg,858.8656677000108,None,down,0.4561975000106031,858.8656677000108,None,None,None,001,001,A,2022_Mar_07_1814,270300_Mental_Rotation,2021.2.3,144.17781161261973,
,,,,102,0,102,0,,,,,,,,,,,,,,,,,,,,,,,,,,,,,,,,,,,,,,859.3542940000043,None,0.0016486800013808534,1.0016486800013809,1,Stimuli_3D\easy\13_150.jpg,860.3561566999997,None,up,0.16531599999871105,860.3561566999997,None,None,None,001,001,A,2022_Mar_07_1814,270300_Mental_Rotation,2021.2.3,144.17781161261973,
,,,,103,0,103,0,,,,,,,,,,,,,,,,,,,,,,,,,,,,,,,,,,,,,,860.541294900002,None,0.00036904000444337726,1.0003690400044434,1,Stimuli_3D\easy\13_150_R.jpg,861.5453077999991,None,down,1.0264639999950305,861.5453077999991,None,None,None,001,001,A,2022_Mar_07_1814,270300_Mental_Rotation,2021.2.3,144.17781161261973,
,,,,104,0,104,0,,,,,,,,,,,,,,,,,,,,,,,,,,,,,,,,,,,,,,862.590961000009,None,0.006621160006034188,1.0066211600060342,1,Stimuli_3D\easy\14_0.jpg,863.5946805999993,None,up,0.21518499999365304,863.5946805999993,None,None,None,001,001,A,2022_Mar_07_1814,270300_Mental_Rotation,2021.2.3,144.17781161261973,
,,,,105,0,105,0,,,,,,,,,,,,,,,,,,,,,,,,,,,,,,,,,,,,,,863.8459787000029,None,0.006096199998864904,1.006096199998865,1,Stimuli_3D\easy\14_0_R.jpg,864.8489775000053,None,down,0.24833770000259392,864.8489775000053,None,None,None,001,001,A,2022_Mar_07_1814,270300_Mental_Rotation,2021.2.3,144.17781161261973,
,,,,106,0,106,0,,,,,,,,,,,,,,,,,,,,,,,,,,,,,,,,,,,,,,865.1349988000002,None,0.0069370999990496784,1.0069370999990497,1,Stimuli_3D\easy\14_50.jpg,866.1383275000117,None,up,0.25885589999961667,866.1383275000117,None,None,None,001,001,A,2022_Mar_07_1814,270300_Mental_Rotation,2021.2.3,144.17781161261973,
,,,,107,0,107,0,,,,,,,,,,,,,,,,,,,,,,,,,,,,,,,,,,,,,,866.4261786999996,None,0.002468079997925088,1.002468079997925,1,Stimuli_3D\easy\14_50_R.jpg,867.4290067000111,None,down,0.10602929999004118,867.4290067000111,None,None,None,001,001,A,2022_Mar_07_1814,270300_Mental_Rotation,2021.2.3,144.17781161261973,
,,,,108,0,108,0,,,,,,,,,,,,,,,,,,,,,,,,,,,,,,,,,,,,,,867.5762332000013,None,0.0033364999981131405,1.0033364999981131,1,Stimuli_3D\easy\14_100.jpg,868.579544799999,None,up,0.16764580000017304,868.579544799999,None,None,None,001,001,A,2022_Mar_07_1814,270300_Mental_Rotation,2021.2.3,144.17781161261973,
,,,,109,0,109,0,,,,,,,,,,,,,,,,,,,,,,,,,,,,,,,,,,,,,,868.7754292000027,None,0.002863060013623908,1.002863060013624,1,Stimuli_3D\easy\14_100_R.jpg,869.7793682000047,None,down,0.19276640001044143,869.7793682000047,None,None,None,001,001,A,2022_Mar_07_1814,270300_Mental_Rotation,2021.2.3,144.17781161261973,
,,,,110,0,110,0,,,,,,,,,,,,,,,,,,,,,,,,,,,,,,,,,,,,,,870.0146224000055,None,0.0006209999992279336,1.000620999999228,1,Stimuli_3D\easy\14_150.jpg,871.0168373000051,None,up,0.10540089999267366,871.0168373000051,None,871.1585360000026,None,001,001,A,2022_Mar_07_1814,270300_Mental_Rotation,2021.2.3,144.17781161261973,
,,,,111,0,111,0,,,,,,,,,,,,,,,,,,,,,,,,,,,,,,,,,,,,,,874.1643953000021,None,0.0007856199808884412,1.0007856199808884,1,Stimuli_3D\easy\14_150_R.jpg,875.1672977999988,None,down,0.27986939999391325,875.1672977999988,None,None,None,001,001,A,2022_Mar_07_1814,270300_Mental_Rotation,2021.2.3,144.17781161261973,
,,,,112,0,112,0,,,,,,,,,,,,,,,,,,,,,,,,,,,,,,,,,,,,,,875.4846018000098,None,0.00017637999553699046,1.000176379995537,1,Stimuli_3D\easy\15_0.jpg,876.487821200004,None,up,0.27158799998869654,876.487821200004,None,None,None,001,001,A,2022_Mar_07_1814,270300_Mental_Rotation,2021.2.3,144.17781161261973,
,,,,113,0,113,0,,,,,,,,,,,,,,,,,,,,,,,,,,,,,,,,,,,,,,876.7858974999981,None,0.005197680002311245,1.0051976800023112,1,Stimuli_3D\easy\15_0_R.jpg,877.7894444000121,None,down,0.20708400000876281,877.7894444000121,None,None,None,001,001,A,2022_Mar_07_1814,270300_Mental_Rotation,2021.2.3,144.17781161261973,
,,,,114,0,114,0,,,,,,,,,,,,,,,,,,,,,,,,,,,,,,,,,,,,,,878.0231109000015,None,0.0023869600117905065,1.0023869600117905,1,Stimuli_3D\easy\15_50.jpg,879.0272805999994,None,up,0.1574547999916831,879.0272805999994,None,None,None,001,001,A,2022_Mar_07_1814,270300_Mental_Rotation,2021.2.3,144.17781161261973,
,,,,115,0,115,0,,,,,,,,,,,,,,,,,,,,,,,,,,,,,,,,,,,,,,879.2262670000055,None,0.0031916000007186085,1.0031916000007186,1,Stimuli_3D\easy\15_50_R.jpg,880.2301103000063,None,down,0.11708969999745023,880.2301103000063,None,None,None,001,001,A,2022_Mar_07_1814,270300_Mental_Rotation,2021.2.3,144.17781161261973,
,,,,116,0,116,0,,,,,,,,,,,,,,,,,,,,,,,,,,,,,,,,,,,,,,880.3860247999983,None,0.0028261000115890056,1.002826100011589,1,Stimuli_3D\easy\15_100.jpg,881.3888443000033,None,up,0.1203860999958124,881.3888443000033,None,None,None,001,001,A,2022_Mar_07_1814,270300_Mental_Rotation,2021.2.3,144.17781161261973,
,,,,117,0,117,0,,,,,,,,,,,,,,,,,,,,,,,,,,,,,,,,,,,,,,881.5329219999985,None,0.0069068599987076595,1.0069068599987077,1,Stimuli_3D\easy\15_100_R.jpg,882.5355401000124,None,down,0.18636890000198036,882.5355401000124,None,None,None,001,001,A,2022_Mar_07_1814,270300_Mental_Rotation,2021.2.3,144.17781161261973,
,,,,118,0,118,0,,,,,,,,,,,,,,,,,,,,,,,,,,,,,,,,,,,,,,882.7505163000023,None,0.005150980010512285,1.0051509800105123,1,Stimuli_3D\easy\15_150.jpg,883.7522825000051,None,up,0.16950819999328814,883.7522825000051,None,None,None,001,001,A,2022_Mar_07_1814,270300_Mental_Rotation,2021.2.3,144.17781161261973,
,,,,119,0,119,0,,,,,,,,,,,,,,,,,,,,,,,,,,,,,,,,,,,,,,883.9435340000055,None,0.00553485999989789,1.005534859999898,1,Stimuli_3D\easy\15_150_R.jpg,884.9478745000088,None,down,0.12410329999693204,884.9478745000088,None,None,None,001,001,A,2022_Mar_07_1814,270300_Mental_Rotation,2021.2.3,144.17781161261973,
,,,,120,0,120,0,,,,,,,,,,,,,,,,,,,,,,,,,,,,,,,,,,,,,,885.0982853000023,None,0.0042109600035473704,1.0042109600035474,1,Stimuli_3D\easy\16_0.jpg,886.1035613999993,None,up,0.18137730000307783,886.1035613999993,None,886.3269718000083,None,001,001,A,2022_Mar_07_1814,270300_Mental_Rotation,2021.2.3,144.17781161261973,
,,,,121,0,121,0,,,,,,,,,,,,,,,,,,,,,,,,,,,,,,,,,,,,,,889.3385756000062,None,0.005684239979018457,1.0056842399790185,1,Stimuli_3D\easy\16_0_R.jpg,890.3425463000021,None,down,0.2418660999974236,890.3425463000021,None,None,None,001,001,A,2022_Mar_07_1814,270300_Mental_Rotation,2021.2.3,144.17781161261973,
,,,,122,0,122,0,,,,,,,,,,,,,,,,,,,,,,,,,,,,,,,,,,,,,,890.6184247000056,None,6.068000220693648e-05,1.000060680002207,1,Stimuli_3D\easy\16_50.jpg,891.6218940000108,None,up,0.2127564000111306,891.6218940000108,None,None,None,001,001,A,2022_Mar_07_1814,270300_Mental_Rotation,2021.2.3,144.17781161261973,
,,,,123,0,123,0,,,,,,,,,,,,,,,,,,,,,,,,,,,,,,,,,,,,,,891.873943700004,None,0.004348899979959242,1.0043488999799592,1,Stimuli_3D\easy\16_50_R.jpg,892.8775955000019,None,down,0.172377900002175,892.8775955000019,None,None,None,001,001,A,2022_Mar_07_1814,270300_Mental_Rotation,2021.2.3,144.17781161261973,
,,,,124,0,124,0,,,,,,,,,,,,,,,,,,,,,,,,,,,,,,,,,,,,,,893.0762721000065,None,0.005722360001527704,1.0057223600015277,1,Stimuli_3D\easy\16_100.jpg,894.0789509000024,None,up,0.20572810000157915,894.0789509000024,None,None,None,001,001,A,2022_Mar_07_1814,270300_Mental_Rotation,2021.2.3,144.17781161261973,
,,,,125,0,125,0,,,,,,,,,,,,,,,,,,,,,,,,,,,,,,,,,,,,,,894.3178953000024,None,0.005331299980753101,1.005331299980753,1,Stimuli_3D\easy\16_100_R.jpg,895.320978600008,None,down,0.21403830000781454,895.320978600008,None,None,None,001,001,A,2022_Mar_07_1814,270300_Mental_Rotation,2021.2.3,144.17781161261973,
,,,,126,0,126,0,,,,,,,,,,,,,,,,,,,,,,,,,,,,,,,,,,,,,,895.5691248000076,None,0.006419299999834038,1.006419299999834,1,Stimuli_3D\easy\16_150.jpg,896.5723893000104,None,up,0.27501749999646563,896.5723893000104,None,None,None,001,001,A,2022_Mar_07_1814,270300_Mental_Rotation,2021.2.3,144.17781161261973,
,,,,127,0,127,0,,,,,,,,,,,,,,,,,,,,,,,,,,,,,,,,,,,,,,896.8859189000068,None,0.0025431999965803698,1.0025431999965804,1,Stimuli_3D\easy\16_150_R.jpg,897.8929583999998,None,down,0.36685880000004545,897.8929583999998,None,None,None,001,001,A,2022_Mar_07_1814,270300_Mental_Rotation,2021.2.3,144.17781161261973,
,,,,128,0,128,0,,,,,,,,,,,,,,,,,,,,,,,,,,,,,,,,,,,,,,898.2954967000114,None,0.001999880012590438,1.0019998800125904,1,Stimuli_3D\easy\17_0.jpg,899.299517899999,None,up,0.31000340000900906,899.299517899999,None,None,None,001,001,A,2022_Mar_07_1814,270300_Mental_Rotation,2021.2.3,144.17781161261973,
,,,,129,0,129,0,,,,,,,,,,,,,,,,,,,,,,,,,,,,,,,,,,,,,,899.6448932000058,None,0.0018380800174782053,1.0018380800174782,1,Stimuli_3D\easy\17_0_R.jpg,900.6475068,None,down,0.323952199993073,900.6475068,None,None,None,001,001,A,2022_Mar_07_1814,270300_Mental_Rotation,2021.2.3,144.17781161261973,
,,,,130,0,130,0,,,,,,,,,,,,,,,,,,,,,,,,,,,,,,,,,,,,,,900.994913100003,None,0.0003058399888686836,1.0003058399888687,1,Stimuli_3D\easy\17_50.jpg,901.9982070000115,None,up,0.23656299999856856,901.9982070000115,None,902.2693320000108,None,001,001,A,2022_Mar_07_1814,270300_Mental_Rotation,2021.2.3,144.17781161261973,
,,,,131,0,131,0,,,,,,,,,,,,,,,,,,,,,,,,,,,,,,,,,,,,,,905.2783869000123,None,0.0008413199975620955,1.000841319997562,1,Stimuli_3D\easy\17_50_R.jpg,906.2813656000071,None,down,0.29073979999520816,906.2813656000071,None,None,None,001,001,A,2022_Mar_07_1814,270300_Mental_Rotation,2021.2.3,144.17781161261973,
,,,,132,0,132,0,,,,,,,,,,,,,,,,,,,,,,,,,,,,,,,,,,,,,,906.5950885000057,None,0.0064382600103272125,1.0064382600103272,1,Stimuli_3D\easy\17_100.jpg,907.5993618000066,None,up,0.2602483999944525,907.5993618000066,None,None,None,001,001,A,2022_Mar_07_1814,270300_Mental_Rotation,2021.2.3,144.17781161261973,
,,,,133,0,133,0,,,,,,,,,,,,,,,,,,,,,,,,,,,,,,,,,,,,,,907.9021266000054,None,0.004544419993180782,1.0045444199931808,1,Stimuli_3D\easy\17_100_R.jpg,908.9059925000038,None,down,0.1161182999931043,908.9059925000038,None,None,None,001,001,A,2022_Mar_07_1814,270300_Mental_Rotation,2021.2.3,144.17781161261973,
,,,,134,0,134,0,,,,,,,,,,,,,,,,,,,,,,,,,,,,,,,,,,,,,,909.0574430000124,None,0.0011379799980204552,1.0011379799980205,1,Stimuli_3D\easy\17_150.jpg,910.0607602000091,None,up,0.04832610000448767,910.0607602000091,None,None,None,001,001,A,2022_Mar_07_1814,270300_Mental_Rotation,2021.2.3,144.17781161261973,
,,,,135,0,135,0,,,,,,,,,,,,,,,,,,,,,,,,,,,,,,,,,,,,,,910.126459600011,None,0.006156360017484985,1.006156360017485,1,Stimuli_3D\easy\17_150_R.jpg,911.1304296000017,None,down,0.20459810001193546,911.1304296000017,None,None,None,001,001,A,2022_Mar_07_1814,270300_Mental_Rotation,2021.2.3,144.17781161261973,
,,,,136,0,136,0,,,,,,,,,,,,,,,,,,,,,,,,,,,,,,,,,,,,,,911.3687863000087,None,0.005239000005531125,1.0052390000055311,1,Stimuli_3D\easy\18_0.jpg,912.3719796000078,None,up,0.049699800001690164,912.3719796000078,None,None,None,001,001,A,2022_Mar_07_1814,270300_Mental_Rotation,2021.2.3,144.17781161261973,
,,,,137,0,137,0,,,,,,,,,,,,,,,,,,,,,,,,,,,,,,,,,,,,,,912.4399177000014,None,0.005891760010854341,1.0058917600108543,1,Stimuli_3D\easy\18_0_R.jpg,913.4432697000011,None,down,0.179095800005598,913.4432697000011,None,None,None,001,001,A,2022_Mar_07_1814,270300_Mental_Rotation,2021.2.3,144.17781161261973,
,,,,138,0,138,0,,,,,,,,,,,,,,,,,,,,,,,,,,,,,,,,,,,,,,913.6645338000089,None,0.0039034999936120585,1.003903499993612,1,Stimuli_3D\easy\18_50.jpg,914.6672753000021,None,up,0.1301742999930866,914.6672753000021,None,None,None,001,001,A,2022_Mar_07_1814,270300_Mental_Rotation,2021.2.3,144.17781161261973,
,,,,139,0,139,0,,,,,,,,,,,,,,,,,,,,,,,,,,,,,,,,,,,,,,914.8355413000099,None,0.0014330999983940274,1.001433099998394,1,Stimuli_3D\easy\18_50_R.jpg,915.8387499000091,None,down,0.12114860001020133,915.8387499000091,None,None,None,001,001,A,2022_Mar_07_1814,270300_Mental_Rotation,2021.2.3,144.17781161261973,
,,,,140,0,140,0,,,,,,,,,,,,,,,,,,,,,,,,,,,,,,,,,,,,,,915.9981842000125,None,0.0050460999918868765,1.0050460999918869,1,Stimuli_3D\easy\18_100.jpg,917.0032925999985,None,up,0.018380299996351823,917.0032925999985,None,917.0433988000004,None,001,001,A,2022_Mar_07_1814,270300_Mental_Rotation,2021.2.3,144.17781161261973,
,,,,141,0,141,0,,,,,,,,,,,,,,,,,,,,,,,,,,,,,,,,,,,,,,920.0484969000099,None,1.1319993063807487e-05,1.0000113199930638,1,Stimuli_3D\easy\18_100_R.jpg,921.0515834000107,None,down,0.5830185999948299,921.0515834000107,None,None,None,001,001,A,2022_Mar_07_1814,270300_Mental_Rotation,2021.2.3,144.17781161261973,
,,,,142,0,142,0,,,,,,,,,,,,,,,,,,,,,,,,,,,,,,,,,,,,,,921.6749781000108,None,0.005940799994277768,1.0059407999942778,1,Stimuli_3D\easy\18_150.jpg,922.6818818000029,None,up,0.2652687999943737,922.6818818000029,None,None,None,001,001,A,2022_Mar_07_1814,270300_Mental_Rotation,2021.2.3,144.17781161261973,
,,,,143,0,143,0,,,,,,,,,,,,,,,,,,,,,,,,,,,,,,,,,,,,,,922.9819994999998,None,0.00029457999335136265,1.0002945799933514,1,Stimuli_3D\easy\18_150_R.jpg,923.9861627000064,None,down,0.27328390000911895,923.9861627000064,None,None,None,001,001,A,2022_Mar_07_1814,270300_Mental_Rotation,2021.2.3,144.17781161261973,
,,,,144,0,144,0,,,,,,,,,,,,,,,,,,,,,,,,,,,,,,,,,,,,,,924.2870433000062,None,0.00623918000201229,1.0062391800020123,1,Stimuli_3D\easy\19_0.jpg,925.2961542000121,None,up,0.17594539999845438,925.2961542000121,None,None,None,001,001,A,2022_Mar_07_1814,270300_Mental_Rotation,2021.2.3,144.17781161261973,
,,,,145,0,145,0,,,,,,,,,,,,,,,,,,,,,,,,,,,,,,,,,,,,,,925.5050358000008,None,0.0012183799990452826,1.0012183799990453,1,Stimuli_3D\easy\19_0_R.jpg,926.5087827000098,None,down,0.25039899999683257,926.5087827000098,None,None,None,001,001,A,2022_Mar_07_1814,270300_Mental_Rotation,2021.2.3,144.17781161261973,
,,,,146,0,146,0,,,,,,,,,,,,,,,,,,,,,,,,,,,,,,,,,,,,,,926.7766888000042,None,0.006257360000745393,1.0062573600007454,1,Stimuli_3D\easy\19_50.jpg,927.7806287999992,None,up,0.1913639999984298,927.7806287999992,None,None,None,001,001,A,2022_Mar_07_1814,270300_Mental_Rotation,2021.2.3,144.17781161261973,
,,,,147,0,147,0,,,,,,,,,,,,,,,,,,,,,,,,,,,,,,,,,,,,,,928.0083815000107,None,0.00043868001375813037,1.0004386800137581,1,Stimuli_3D\easy\19_50_R.jpg,929.0178788000048,None,down,0.2162864999991143,929.0178788000048,None,None,None,001,001,A,2022_Mar_07_1814,270300_Mental_Rotation,2021.2.3,144.17781161261973,
,,,,148,0,148,0,,,,,,,,,,,,,,,,,,,,,,,,,,,,,,,,,,,,,,929.2555044000037,None,0.006849459998193197,1.0068494599981932,1,Stimuli_3D\easy\19_100.jpg,930.2586108000105,None,up,0.15122850000625476,930.2586108000105,None,None,None,001,001,A,2022_Mar_07_1814,270300_Mental_Rotation,2021.2.3,144.17781161261973,
,,,,149,0,149,0,,,,,,,,,,,,,,,,,,,,,,,,,,,,,,,,,,,,,,930.4444064999989,None,0.0038924999826122075,1.0038924999826122,1,Stimuli_3D\easy\19_100_R.jpg,931.4488115999993,None,down,0.09854859999904875,931.4488115999993,None,None,None,001,001,A,2022_Mar_07_1814,270300_Mental_Rotation,2021.2.3,144.17781161261973,
,,,,150,0,150,0,,,,,,,,,,,,,,,,,,,,,,,,,,,,,,,,,,,,,,931.5869765000098,None,0.0043110999977216125,1.0043110999977216,1,Stimuli_3D\easy\19_150.jpg,932.5900494000089,None,up,0.04460629999812227,932.5900494000089,None,932.669097200007,None,001,001,A,2022_Mar_07_1814,270300_Mental_Rotation,2021.2.3,144.17781161261973,
,,,,151,0,151,0,,,,,,,,,,,,,,,,,,,,,,,,,,,,,,,,,,,,,,935.6775251000072,None,0.0005005199927836657,1.0005005199927837,1,Stimuli_3D\easy\19_150_R.jpg,936.683004999999,None,down,0.3018675999919651,936.683004999999,None,None,None,001,001,A,2022_Mar_07_1814,270300_Mental_Rotation,2021.2.3,144.17781161261973,
,,,,152,0,152,0,,,,,,,,,,,,,,,,,,,,,,,,,,,,,,,,,,,,,,937.0195286000089,None,0.006126599997514859,1.0061265999975149,1,Stimuli_3D\easy\20_0.jpg,938.0231950000016,None,up,0.13648180000018328,938.0231950000016,None,None,None,001,001,A,2022_Mar_07_1814,270300_Mental_Rotation,2021.2.3,144.17781161261973,
,,,,153,0,153,0,,,,,,,,,,,,,,,,,,,,,,,,,,,,,,,,,,,,,,938.1950588000036,None,0.0006533800042234361,1.0006533800042234,1,Stimuli_3D\easy\20_0_R.jpg,939.2040476000111,None,down,0.8931086999946274,939.2040476000111,None,None,None,001,001,A,2022_Mar_07_1814,270300_Mental_Rotation,2021.2.3,144.17781161261973,
,,,,154,0,154,0,,,,,,,,,,,,,,,,,,,,,,,,,,,,,,,,,,,,,,940.1348893000104,None,0.006659200007561594,1.0066592000075616,1,Stimuli_3D\easy\20_50.jpg,941.1380111000035,None,up,0.20867940000607632,941.1380111000035,None,None,None,001,001,A,2022_Mar_07_1814,270300_Mental_Rotation,2021.2.3,144.17781161261973,
,,,,155,0,155,0,,,,,,,,,,,,,,,,,,,,,,,,,,,,,,,,,,,,,,941.3814765999996,None,0.004720199998700991,1.004720199998701,1,Stimuli_3D\easy\20_50_R.jpg,942.3842273000046,None,down,0.11286189999373164,942.3842273000046,None,None,None,001,001,A,2022_Mar_07_1814,270300_Mental_Rotation,2021.2.3,144.17781161261973,
,,,,156,0,156,0,,,,,,,,,,,,,,,,,,,,,,,,,,,,,,,,,,,,,,942.5262515000068,None,0.0009514599951216951,1.0009514599951217,1,Stimuli_3D\easy\20_100.jpg,943.5302142,None,up,0.2421466999949189,943.5302142,None,None,None,001,001,A,2022_Mar_07_1814,270300_Mental_Rotation,2021.2.3,144.17781161261973,
,,,,157,0,157,0,,,,,,,,,,,,,,,,,,,,,,,,,,,,,,,,,,,,,,943.820635600001,None,0.005921319985645823,1.0059213199856458,1,Stimuli_3D\easy\20_100_R.jpg,944.8278477999993,None,down,0.05633910000324249,944.8278477999993,None,None,None,001,001,A,2022_Mar_07_1814,270300_Mental_Rotation,2021.2.3,144.17781161261973,
,,,,158,0,158,0,,,,,,,,,,,,,,,,,,,,,,,,,,,,,,,,,,,,,,944.9063517000031,None,0.006370260016410612,1.0063702600164106,1,Stimuli_3D\easy\20_150.jpg,945.9112706000014,None,up,0.18593790000886656,945.9112706000014,None,None,None,001,001,A,2022_Mar_07_1814,270300_Mental_Rotation,2021.2.3,144.17781161261973,
,,,,159,0,159,0,,,,,,,,,,,,,,,,,,,,,,,,,,,,,,,,,,,,,,946.1321218000085,None,0.004749999978230335,1.0047499999782303,1,Stimuli_3D\easy\20_150_R.jpg,947.1349673000077,None,down,0.03669090000039432,947.1349673000077,None,None,None,001,001,A,2022_Mar_07_1814,270300_Mental_Rotation,2021.2.3,144.17781161261973,
,,,,160,0,160,0,,,,,,,,,,,,,,,,,,,,,,,,,,,,,,,,,,,,,,947.1909396999981,None,0.006123060011304915,1.006123060011305,1,Stimuli_3D\easy\21_0.jpg,948.1956444000098,None,up,0.15120829999796115,948.1956444000098,None,948.3796120000043,None,001,001,A,2022_Mar_07_1814,270300_Mental_Rotation,2021.2.3,144.17781161261973,
,,,,161,0,161,0,,,,,,,,,,,,,,,,,,,,,,,,,,,,,,,,,,,,,,951.3848868000059,None,0.006870839977636933,1.006870839977637,0,Stimuli_3D\easy\21_0_R.jpg,952.39186470001,None,up,0.655260300001828,952.39186470001,None,None,None,001,001,A,2022_Mar_07_1814,270300_Mental_Rotation,2021.2.3,144.17781161261973,
,,,,162,0,162,0,,,,,,,,,,,,,,,,,,,,,,,,,,,,,,,,,,,,,,953.080975600009,None,0.0054475000069942325,1.0054475000069942,1,Stimuli_3D\easy\21_50.jpg,954.0836993999983,None,up,0.2764778999990085,954.0836993999983,None,None,None,001,001,A,2022_Mar_07_1814,270300_Mental_Rotation,2021.2.3,144.17781161261973,
,,,,163,0,163,0,,,,,,,,,,,,,,,,,,,,,,,,,,,,,,,,,,,,,,954.3978687000053,None,0.00425820000236854,1.0042582000023685,1,Stimuli_3D\easy\21_50_R.jpg,955.4009566000022,None,down,0.2959823000128381,955.4009566000022,None,None,None,001,001,A,2022_Mar_07_1814,270300_Mental_Rotation,2021.2.3,144.17781161261973,
,,,,164,0,164,0,,,,,,,,,,,,,,,,,,,,,,,,,,,,,,,,,,,,,,955.7240588999994,None,0.001659959991229698,1.0016599599912297,0,Stimuli_3D\easy\21_100.jpg,956.727275600002,None,down,0.26965270000800956,956.727275600002,None,None,None,001,001,A,2022_Mar_07_1814,270300_Mental_Rotation,2021.2.3,144.17781161261973,
,,,,165,0,165,0,,,,,,,,,,,,,,,,,,,,,,,,,,,,,,,,,,,,,,957.0253537000099,None,0.0021421799901872873,1.0021421799901873,1,Stimuli_3D\easy\21_100_R.jpg,958.0292542000097,None,down,1.2054582999990089,958.0292542000097,None,None,None,001,001,A,2022_Mar_07_1814,270300_Mental_Rotation,2021.2.3,144.17781161261973,
,,,,166,0,166,0,,,,,,,,,,,,,,,,,,,,,,,,,,,,,,,,,,,,,,959.2735525000026,None,0.005121099995449185,1.0051210999954492,1,Stimuli_3D\easy\21_150.jpg,960.2771787000092,None,up,0.7824782000097912,960.2771787000092,None,None,None,001,001,A,2022_Mar_07_1814,270300_Mental_Rotation,2021.2.3,144.17781161261973,
,,,,167,0,167,0,,,,,,,,,,,,,,,,,,,,,,,,,,,,,,,,,,,,,,961.100583300009,None,0.0023590999917360023,1.002359099991736,1,Stimuli_3D\easy\21_150_R.jpg,962.1033119000058,None,down,2.43141019999166,962.1033119000058,None,None,None,001,001,A,2022_Mar_07_1814,270300_Mental_Rotation,2021.2.3,144.17781161261973,
,,,,168,0,168,0,,,,,,,,,,,,,,,,,,,,,,,,,,,,,,,,,,,,,,964.5779330000078,None,0.0012405999877955765,1.0012405999877956,1,Stimuli_3D\easy\22_0.jpg,965.5817932000064,None,up,1.1780127999954857,965.5817932000064,None,None,None,001,001,A,2022_Mar_07_1814,270300_Mental_Rotation,2021.2.3,144.17781161261973,
,,,,169,0,169,0,,,,,,,,,,,,,,,,,,,,,,,,,,,,,,,,,,,,,,966.798638600012,None,0.006021499997586943,1.006021499997587,1,Stimuli_3D\easy\22_0_R.jpg,967.8018073999992,None,down,0.6697438999981387,967.8018073999992,None,None,None,001,001,A,2022_Mar_07_1814,270300_Mental_Rotation,2021.2.3,144.17781161261973,
,,,,170,0,170,0,,,,,,,,,,,,,,,,,,,,,,,,,,,,,,,,,,,,,,968.4948783,None,0.005365660006646067,1.005365660006646,1,Stimuli_3D\easy\22_50.jpg,969.4976284000004,None,up,0.3617281000042567,969.4976284000004,None,969.9191006000037,None,001,001,A,2022_Mar_07_1814,270300_Mental_Rotation,2021.2.3,144.17781161261973,
,,,,171,0,171,0,,,,,,,,,,,,,,,,,,,,,,,,,,,,,,,,,,,,,,972.9219808000053,None,0.0007624200079590082,1.000762420007959,1,Stimuli_3D\easy\22_50_R.jpg,973.9256356000114,None,down,1.3335313999996288,973.9256356000114,None,None,None,001,001,A,2022_Mar_07_1814,270300_Mental_Rotation,2021.2.3,144.17781161261973,
,,,,172,0,172,0,,,,,,,,,,,,,,,,,,,,,,,,,,,,,,,,,,,,,,975.2812644000078,None,0.0036452600033953786,1.0036452600033954,1,Stimuli_3D\easy\22_100.jpg,976.2894023000117,None,up,0.48228429998562206,976.2894023000117,None,None,None,001,001,A,2022_Mar_07_1814,270300_Mental_Rotation,2021.2.3,144.17781161261973,
,,,,173,0,173,0,,,,,,,,,,,,,,,,,,,,,,,,,,,,,,,,,,,,,,976.7923097000021,None,0.005864760008989833,1.0058647600089898,1,Stimuli_3D\easy\22_100_R.jpg,977.7968942000007,None,down,0.6251671000063652,977.7968942000007,None,None,None,001,001,A,2022_Mar_07_1814,270300_Mental_Rotation,2021.2.3,144.17781161261973,
,,,,174,0,174,0,,,,,,,,,,,,,,,,,,,,,,,,,,,,,,,,,,,,,,978.4534089000081,None,0.006799999988288619,1.0067999999882886,1,Stimuli_3D\easy\22_150.jpg,979.4575637000089,None,up,0.1771909999952186,979.4575637000089,None,None,None,001,001,A,2022_Mar_07_1814,270300_Mental_Rotation,2021.2.3,144.17781161261973,
,,,,175,0,175,0,,,,,,,,,,,,,,,,,,,,,,,,,,,,,,,,,,,,,,979.6687220000022,None,0.006037400002242066,1.006037400002242,1,Stimuli_3D\easy\22_150_R.jpg,980.676005500005,None,down,0.15860129999055061,980.676005500005,None,None,None,001,001,A,2022_Mar_07_1814,270300_Mental_Rotation,2021.2.3,144.17781161261973,
,,,,176,0,176,0,,,,,,,,,,,,,,,,,,,,,,,,,,,,,,,,,,,,,,980.8741722000123,None,0.0049940999888349324,1.004994099988835,1,Stimuli_3D\easy\23_0.jpg,981.8808248999994,None,up,0.14134780000313185,981.8808248999994,None,None,None,001,001,A,2022_Mar_07_1814,270300_Mental_Rotation,2021.2.3,144.17781161261973,
,,,,177,0,177,0,,,,,,,,,,,,,,,,,,,,,,,,,,,,,,,,,,,,,,982.0602179999987,None,0.0009664800018072128,1.0009664800018072,1,Stimuli_3D\easy\23_0_R.jpg,983.0627166000049,None,down,0.11064270000497345,983.0627166000049,None,None,None,001,001,A,2022_Mar_07_1814,270300_Mental_Rotation,2021.2.3,144.17781161261973,
,,,,178,0,178,0,,,,,,,,,,,,,,,,,,,,,,,,,,,,,,,,,,,,,,983.2087972000008,None,0.005397499990067445,1.0053974999900674,1,Stimuli_3D\easy\23_50.jpg,984.2118499000062,None,up,0.09780289999616798,984.2118499000062,None,None,None,001,001,A,2022_Mar_07_1814,270300_Mental_Rotation,2021.2.3,144.17781161261973,
,,,,179,0,179,0,,,,,,,,,,,,,,,,,,,,,,,,,,,,,,,,,,,,,,984.3486000999983,None,0.0004269799974281341,1.0004269799974281,1,Stimuli_3D\easy\23_50_R.jpg,985.3580034000042,None,down,0.5018742999964161,985.3580034000042,None,None,None,001,001,A,2022_Mar_07_1814,270300_Mental_Rotation,2021.2.3,144.17781161261973,
,,,,180,0,180,0,,,,,,,,,,,,,,,,,,,,,,,,,,,,,,,,,,,,,,985.8985990000074,None,0.006181599994306453,1.0061815999943065,1,Stimuli_3D\easy\23_100.jpg,986.9029875000124,None,up,0.08180879999417812,986.9029875000124,None,987.0321459000115,None,001,001,A,2022_Mar_07_1814,270300_Mental_Rotation,2021.2.3,144.17781161261973,
,,,,181,0,181,0,,,,,,,,,,,,,,,,,,,,,,,,,,,,,,,,,,,,,,990.037487300011,None,0.001022419979562983,1.001022419979563,1,Stimuli_3D\easy\23_100_R.jpg,991.0450094000116,None,down,1.3897896999988006,991.0450094000116,None,None,None,001,001,A,2022_Mar_07_1814,270300_Mental_Rotation,2021.2.3,144.17781161261973,
,,,,182,0,182,0,,,,,,,,,,,,,,,,,,,,,,,,,,,,,,,,,,,,,,992.4651007000066,None,0.0017408800049452111,1.0017408800049452,1,Stimuli_3D\easy\23_150.jpg,993.4682843000046,None,up,0.5657627999898978,993.4682843000046,None,None,None,001,001,A,2022_Mar_07_1814,270300_Mental_Rotation,2021.2.3,144.17781161261973,
,,,,183,0,183,0,,,,,,,,,,,,,,,,,,,,,,,,,,,,,,,,,,,,,,994.0524237000063,None,0.006925959998625331,1.0069259599986253,1,Stimuli_3D\easy\23_150_R.jpg,995.0552018000017,None,down,0.16694579999602865,995.0552018000017,None,None,None,001,001,A,2022_Mar_07_1814,270300_Mental_Rotation,2021.2.3,144.17781161261973,
,,,,184,0,184,0,,,,,,,,,,,,,,,,,,,,,,,,,,,,,,,,,,,,,,995.2584590000042,None,0.005299600001308136,1.0052996000013081,1,Stimuli_3D\easy\24_0.jpg,996.2625625000073,None,up,0.2721480000036536,996.2625625000073,None,None,None,001,001,A,2022_Mar_07_1814,270300_Mental_Rotation,2021.2.3,144.17781161261973,
,,,,185,0,185,0,,,,,,,,,,,,,,,,,,,,,,,,,,,,,,,,,,,,,,996.5737056000071,None,0.005346699996152893,1.005346699996153,1,Stimuli_3D\easy\24_0_R.jpg,997.5784801000118,None,down,0.14360290000331588,997.5784801000118,None,None,None,001,001,A,2022_Mar_07_1814,270300_Mental_Rotation,2021.2.3,144.17781161261973,
,,,,186,0,186,0,,,,,,,,,,,,,,,,,,,,,,,,,,,,,,,,,,,,,,997.765708100007,None,0.006664219996309839,1.0066642199963098,1,Stimuli_3D\easy\24_50.jpg,998.7699484000041,None,up,0.22788890000083484,998.7699484000041,None,None,None,001,001,A,2022_Mar_07_1814,270300_Mental_Rotation,2021.2.3,144.17781161261973,
,,,,187,0,187,0,,,,,,,,,,,,,,,,,,,,,,,,,,,,,,,,,,,,,,999.0386345000006,None,0.004988300002878532,1.0049883000028785,1,Stimuli_3D\easy\24_50_R.jpg,1000.0413568000076,None,down,0.13035799999488518,1000.0413568000076,None,None,None,001,001,A,2022_Mar_07_1814,270300_Mental_Rotation,2021.2.3,144.17781161261973,
,,,,188,0,188,0,,,,,,,,,,,,,,,,,,,,,,,,,,,,,,,,,,,,,,1000.2051902000094,None,0.0007243799918796867,1.0007243799918797,1,Stimuli_3D\easy\24_100.jpg,1001.2121807000076,None,up,0.122445200002403,1001.2121807000076,None,None,None,001,001,A,2022_Mar_07_1814,270300_Mental_Rotation,2021.2.3,144.17781161261973,
,,,,189,0,189,0,,,,,,,,,,,,,,,,,,,,,,,,,,,,,,,,,,,,,,1001.3733751000109,None,0.0011651999957393855,1.0011651999957394,1,Stimuli_3D\easy\24_100_R.jpg,1002.3769577000057,None,down,0.1329321999946842,1002.3769577000057,None,None,None,001,001,A,2022_Mar_07_1814,270300_Mental_Rotation,2021.2.3,144.17781161261973,
,,,,190,0,190,0,,,,,,,,,,,,,,,,,,,,,,,,,,,,,,,,,,,,,,1002.5439169000019,None,0.005067499994765967,1.005067499994766,1,Stimuli_3D\easy\24_150.jpg,1003.5467175000085,None,up,0.012427499998011626,1003.5467175000085,None,1003.5823256000003,None,001,001,A,2022_Mar_07_1814,270300_Mental_Rotation,2021.2.3,144.17781161261973,
,,,,191,0,191,0,,,,,,,,,,,,,,,,,,,,,,,,,,,,,,,,,,,,,,1006.5925028000056,None,0.006819239992182702,1.0068192399921827,1,Stimuli_3D\easy\24_150_R.jpg,1007.5947831000085,None,down,0.2648171999899205,1007.5947831000085,None,None,None,001,001,A,2022_Mar_07_1814,270300_Mental_Rotation,2021.2.3,144.17781161261973,
,,,,192,0,192,0,,,,,,,,,,,,,,,,,,,,,,,,,,,,,,,,,,,,,,1007.8989967000089,None,0.005060600000433624,1.0050606000004336,1,Stimuli_3D\hard\25_0.jpg,1008.9024562999984,None,up,0.04422500000509899,1008.9024562999984,None,None,None,001,001,A,2022_Mar_07_1814,270300_Mental_Rotation,2021.2.3,144.17781161261973,
,,,,193,0,193,0,,,,,,,,,,,,,,,,,,,,,,,,,,,,,,,,,,,,,,1008.9728160000086,None,0.0015330599999288097,1.0015330599999288,1,Stimuli_3D\hard\25_0_R.jpg,1009.9774942000076,None,down,0.1945648999972036,1009.9774942000076,None,None,None,001,001,A,2022_Mar_07_1814,270300_Mental_Rotation,2021.2.3,144.17781161261973,
,,,,194,0,194,0,,,,,,,,,,,,,,,,,,,,,,,,,,,,,,,,,,,,,,1010.2029288000049,None,0.001960579989827238,1.0019605799898272,1,Stimuli_3D\hard\25_50.jpg,1011.2093897000013,None,up,0.4002981999947224,1011.2093897000013,None,None,None,001,001,A,2022_Mar_07_1814,270300_Mental_Rotation,2021.2.3,144.17781161261973,
,,,,195,0,195,0,,,,,,,,,,,,,,,,,,,,,,,,,,,,,,,,,,,,,,1011.6479881999985,None,0.004969999979948625,1.0049699999799486,1,Stimuli_3D\hard\25_50_R.jpg,1012.6545239000116,None,down,0.1926203000039095,1012.6545239000116,None,None,None,001,001,A,2022_Mar_07_1814,270300_Mental_Rotation,2021.2.3,144.17781161261973,
,,,,196,0,196,0,,,,,,,,,,,,,,,,,,,,,,,,,,,,,,,,,,,,,,1012.8796831000072,None,0.005566699997871183,1.0055666999978712,1,Stimuli_3D\hard\25_100.jpg,1013.883404600012,None,up,0.15137079999840353,1013.883404600012,None,None,None,001,001,A,2022_Mar_07_1814,270300_Mental_Rotation,2021.2.3,144.17781161261973,
,,,,197,0,197,0,,,,,,,,,,,,,,,,,,,,,,,,,,,,,,,,,,,,,,1014.0717538000026,None,0.0012485000042943284,1.0012485000042943,1,Stimuli_3D\hard\25_100_R.jpg,1015.0757263000123,None,down,0.47118439999758266,1015.0757263000123,None,None,None,001,001,A,2022_Mar_07_1814,270300_Mental_Rotation,2021.2.3,144.17781161261973,
,,,,198,0,198,0,,,,,,,,,,,,,,,,,,,,,,,,,,,,,,,,,,,,,,1015.5761898000055,None,0.0038384799991035834,1.0038384799991036,1,Stimuli_3D\hard\25_150.jpg,1016.5807146000006,None,up,0.21618950000265613,1016.5807146000006,None,None,None,001,001,A,2022_Mar_07_1814,270300_Mental_Rotation,2021.2.3,144.17781161261973,
,,,,199,0,199,0,,,,,,,,,,,,,,,,,,,,,,,,,,,,,,,,,,,,,,1016.8266258000076,None,0.0018320800154469907,1.001832080015447,1,Stimuli_3D\hard\25_150_R.jpg,1017.8293889000051,None,down,0.054952200007392094,1017.8293889000051,None,None,None,001,001,A,2022_Mar_07_1814,270300_Mental_Rotation,2021.2.3,144.17781161261973,
,,,,200,0,200,0,,,,,,,,,,,,,,,,,,,,,,,,,,,,,,,,,,,,,,1017.9084834000096,None,0.002842160000000149,1.0028421600000001,1,Stimuli_3D\hard\26_0.jpg,1018.9123658000026,None,up,0.0468267999967793,1018.9123658000026,None,1018.9816202000075,None,001,001,A,2022_Mar_07_1814,270300_Mental_Rotation,2021.2.3,144.17781161261973,
,,,,201,0,201,0,,,,,,,,,,,,,,,,,,,,,,,,,,,,,,,,,,,,,,1021.9865829000046,None,0.006833439998445101,1.006833439998445,1,Stimuli_3D\hard\26_0_R.jpg,1022.989822100004,None,down,0.26979999999457505,1022.989822100004,None,None,None,001,001,A,2022_Mar_07_1814,270300_Mental_Rotation,2021.2.3,144.17781161261973,
,,,,202,0,202,0,,,,,,,,,,,,,,,,,,,,,,,,,,,,,,,,,,,,,,1023.2935093999986,None,0.00604199999361299,1.006041999993613,1,Stimuli_3D\hard\26_50.jpg,1024.297138400012,None,up,0.18779320000612643,1024.297138400012,None,None,None,001,001,A,2022_Mar_07_1814,270300_Mental_Rotation,2021.2.3,144.17781161261973,
,,,,203,0,203,0,,,,,,,,,,,,,,,,,,,,,,,,,,,,,,,,,,,,,,1024.5267153000023,None,0.003113300001132302,1.0031133000011323,1,Stimuli_3D\hard\26_50_R.jpg,1025.5300614000007,None,down,0.11631810000108089,1025.5300614000007,None,None,None,001,001,A,2022_Mar_07_1814,270300_Mental_Rotation,2021.2.3,144.17781161261973,
,,,,204,0,204,0,,,,,,,,,,,,,,,,,,,,,,,,,,,,,,,,,,,,,,1025.666495700003,None,0.006563760005519725,1.0065637600055197,1,Stimuli_3D\hard\26_100.jpg,1026.6694981000037,None,up,0.0021058999991510063,1026.6694981000037,None,None,None,001,001,A,2022_Mar_07_1814,270300_Mental_Rotation,2021.2.3,144.17781161261973,
,,,,205,0,205,0,,,,,,,,,,,,,,,,,,,,,,,,,,,,,,,,,,,,,,1026.6895527000015,None,0.00500515999738127,1.0050051599973813,1,Stimuli_3D\hard\26_100_R.jpg,1027.6930282000103,None,down,0.1414985000010347,1027.6930282000103,None,None,None,001,001,A,2022_Mar_07_1814,270300_Mental_Rotation,2021.2.3,144.17781161261973,
,,,,206,0,206,0,,,,,,,,,,,,,,,,,,,,,,,,,,,,,,,,,,,,,,1027.8718092000054,None,0.006857300002593547,1.0068573000025935,1,Stimuli_3D\hard\26_150.jpg,1028.8747961000045,None,up,0.5594796999939717,1028.8747961000045,None,None,None,001,001,A,2022_Mar_07_1814,270300_Mental_Rotation,2021.2.3,144.17781161261973,
,,,,207,0,207,0,,,,,,,,,,,,,,,,,,,,,,,,,,,,,,,,,,,,,,1029.463373400009,None,0.0017948599997907877,1.0017948599997908,1,Stimuli_3D\hard\26_150_R.jpg,1030.4704413,None,down,0.21477089999825694,1030.4704413,None,None,None,001,001,A,2022_Mar_07_1814,270300_Mental_Rotation,2021.2.3,144.17781161261973,
,,,,208,0,208,0,,,,,,,,,,,,,,,,,,,,,,,,,,,,,,,,,,,,,,1030.719409600002,None,0.004310999996960163,1.0043109999969602,1,Stimuli_3D\hard\27_0.jpg,1031.7264670000004,None,up,0.1458991999970749,1031.7264670000004,None,None,None,001,001,A,2022_Mar_07_1814,270300_Mental_Rotation,2021.2.3,144.17781161261973,
,,,,209,0,209,0,,,,,,,,,,,,,,,,,,,,,,,,,,,,,,,,,,,,,,1031.9132389000006,None,0.0033177999866893515,1.0033177999866894,1,Stimuli_3D\hard\27_0_R.jpg,1032.9211727000074,None,down,0.050401200001942925,1032.9211727000074,None,None,None,001,001,A,2022_Mar_07_1814,270300_Mental_Rotation,2021.2.3,144.17781161261973,
,,,,210,0,210,0,,,,,,,,,,,,,,,,,,,,,,,,,,,,,,,,,,,,,,1032.9922091000044,None,0.0063601599977118894,1.006360159997712,1,Stimuli_3D\hard\27_50.jpg,1033.9957278000074,None,up,0.07593440001073759,1033.9957278000074,None,1034.1053534000093,None,001,001,A,2022_Mar_07_1814,270300_Mental_Rotation,2021.2.3,144.17781161261973,
,,,,211,0,211,0,,,,,,,,,,,,,,,,,,,,,,,,,,,,,,,,,,,,,,1037.108719900003,None,0.00033822000841610134,1.000338220008416,1,Stimuli_3D\hard\27_50_R.jpg,1038.1127032000077,None,down,0.2471977999957744,1038.1127032000077,None,None,None,001,001,A,2022_Mar_07_1814,270300_Mental_Rotation,2021.2.3,144.17781161261973,
,,,,212,0,212,0,,,,,,,,,,,,,,,,,,,,,,,,,,,,,,,,,,,,,,1038.398946100002,None,0.005258899996988475,1.0052588999969885,1,Stimuli_3D\hard\27_100.jpg,1039.4032116000017,None,up,0.5064191999990726,1039.4032116000017,None,None,None,001,001,A,2022_Mar_07_1814,270300_Mental_Rotation,2021.2.3,144.17781161261973,
,,,,213,0,213,0,,,,,,,,,,,,,,,,,,,,,,,,,,,,,,,,,,,,,,1039.9481138999981,None,0.006637999991653487,1.0066379999916535,1,Stimuli_3D\hard\27_100_R.jpg,1040.9518554000097,None,down,0.1705837000044994,1040.9518554000097,None,None,None,001,001,A,2022_Mar_07_1814,270300_Mental_Rotation,2021.2.3,144.17781161261973,
,,,,214,0,214,0,,,,,,,,,,,,,,,,,,,,,,,,,,,,,,,,,,,,,,1041.1586327000114,None,0.0024153999984264374,1.0024153999984264,1,Stimuli_3D\hard\27_150.jpg,1042.1627293000056,None,up,0.1487613999925088,1042.1627293000056,None,None,None,001,001,A,2022_Mar_07_1814,270300_Mental_Rotation,2021.2.3,144.17781161261973,
,,,,215,0,215,0,,,,,,,,,,,,,,,,,,,,,,,,,,,,,,,,,,,,,,1042.3466361000028,None,0.0034641999955056235,1.0034641999955056,1,Stimuli_3D\hard\27_150_R.jpg,1043.3497671000077,None,down,0.04766499999095686,1043.3497671000077,None,None,None,001,001,A,2022_Mar_07_1814,270300_Mental_Rotation,2021.2.3,144.17781161261973,
,,,,216,0,216,0,,,,,,,,,,,,,,,,,,,,,,,,,,,,,,,,,,,,,,1043.4340358000045,None,0.00482410000404343,1.0048241000040434,1,Stimuli_3D\hard\28_0.jpg,1044.4404396000027,None,up,0.006095499993534759,1044.4404396000027,None,None,None,001,001,A,2022_Mar_07_1814,270300_Mental_Rotation,2021.2.3,144.17781161261973,
,,,,217,0,217,0,,,,,,,,,,,,,,,,,,,,,,,,,,,,,,,,,,,,,,1044.4775288000092,None,0.005108480007038452,1.0051084800070385,1,Stimuli_3D\hard\28_0_R.jpg,1045.484358600006,None,down,0.062294800009112805,1045.484358600006,None,None,None,001,001,A,2022_Mar_07_1814,270300_Mental_Rotation,2021.2.3,144.17781161261973,
,,,,218,0,218,0,,,,,,,,,,,,,,,,,,,,,,,,,,,,,,,,,,,,,,1045.572826500007,None,0.001262759993551299,1.0012627599935513,1,Stimuli_3D\hard\28_50.jpg,1046.5766773000068,None,up,0.01985409999906551,1046.5766773000068,None,None,None,001,001,A,2022_Mar_07_1814,270300_Mental_Rotation,2021.2.3,144.17781161261973,
,,,,219,0,219,0,,,,,,,,,,,,,,,,,,,,,,,,,,,,,,,,,,,,,,1046.6167079000006,None,0.00669126000138931,1.0066912600013893,1,Stimuli_3D\hard\28_50_R.jpg,1047.6203797000053,None,down,0.06373890000395477,1047.6203797000053,None,None,None,001,001,A,2022_Mar_07_1814,270300_Mental_Rotation,2021.2.3,144.17781161261973,
,,,,220,0,220,0,,,,,,,,,,,,,,,,,,,,,,,,,,,,,,,,,,,,,,1047.7102181000082,None,0.003060560004087165,1.0030605600040872,1,Stimuli_3D\hard\28_100.jpg,1048.7131139999983,None,up,0.4468265000032261,1048.7131139999983,None,1049.192961000008,None,001,001,A,2022_Mar_07_1814,270300_Mental_Rotation,2021.2.3,144.17781161261973,
,,,,221,0,221,0,,,,,,,,,,,,,,,,,,,,,,,,,,,,,,,,,,,,,,1052.1981239000015,None,0.006108139990828931,1.006108139990829,1,Stimuli_3D\hard\28_100_R.jpg,1053.202857100012,None,down,0.8319195999938529,1053.202857100012,None,None,None,001,001,A,2022_Mar_07_1814,270300_Mental_Rotation,2021.2.3,144.17781161261973,
,,,,222,0,222,0,,,,,,,,,,,,,,,,,,,,,,,,,,,,,,,,,,,,,,1054.0737272000115,None,0.0040582000074209645,1.004058200007421,1,Stimuli_3D\hard\28_150.jpg,1055.0765283000073,None,up,0.14825009999913163,1055.0765283000073,None,None,None,001,001,A,2022_Mar_07_1814,270300_Mental_Rotation,2021.2.3,144.17781161261973,
,,,,223,0,223,0,,,,,,,,,,,,,,,,,,,,,,,,,,,,,,,,,,,,,,1055.2625812000042,None,0.0051697000017156824,1.0051697000017157,1,Stimuli_3D\hard\28_150_R.jpg,1056.2662336000067,None,down,0.15593969999463297,1056.2662336000067,None,None,None,001,001,A,2022_Mar_07_1814,270300_Mental_Rotation,2021.2.3,144.17781161261973,
,,,,224,0,224,0,,,,,,,,,,,,,,,,,,,,,,,,,,,,,,,,,,,,,,1056.4620741000108,None,0.004061400002683513,1.0040614000026835,1,Stimuli_3D\hard\29_0.jpg,1057.4646184000012,None,up,0.2323443000059342,1057.4646184000012,None,None,None,001,001,A,2022_Mar_07_1814,270300_Mental_Rotation,2021.2.3,144.17781161261973,
,,,,225,0,225,0,,,,,,,,,,,,,,,,,,,,,,,,,,,,,,,,,,,,,,1057.7291009000037,None,0.0006030799995642155,1.0006030799995642,1,Stimuli_3D\hard\29_0_R.jpg,1058.7319675000035,None,down,0.47794700000667945,1058.7319675000035,None,None,None,001,001,A,2022_Mar_07_1814,270300_Mental_Rotation,2021.2.3,144.17781161261973,
,,,,226,0,226,0,,,,,,,,,,,,,,,,,,,,,,,,,,,,,,,,,,,,,,1059.2442308000027,None,0.0046820999996270984,1.004682099999627,1,Stimuli_3D\hard\29_50.jpg,1060.247589400009,None,up,0.2247122999979183,1060.247589400009,None,None,None,001,001,A,2022_Mar_07_1814,270300_Mental_Rotation,2021.2.3,144.17781161261973,
,,,,227,0,227,0,,,,,,,,,,,,,,,,,,,,,,,,,,,,,,,,,,,,,,1060.5083832000091,None,0.0068897999881301075,1.00688979998813,1,Stimuli_3D\hard\29_50_R.jpg,1061.5115121999988,None,down,0.009992200008127838,1061.5115121999988,None,None,None,001,001,A,2022_Mar_07_1814,270300_Mental_Rotation,2021.2.3,144.17781161261973,
,,,,228,0,228,0,,,,,,,,,,,,,,,,,,,,,,,,,,,,,,,,,,,,,,1061.5593691000104,None,0.00048098000115714967,1.0004809800011571,1,Stimuli_3D\hard\29_100.jpg,1062.5630317000032,None,up,0.10912229999667034,1062.5630317000032,None,None,None,001,001,A,2022_Mar_07_1814,270300_Mental_Rotation,2021.2.3,144.17781161261973,
,,,,229,0,229,0,,,,,,,,,,,,,,,,,,,,,,,,,,,,,,,,,,,,,,1062.6946513000003,None,0.0037106600066181272,1.0037106600066181,1,Stimuli_3D\hard\29_100_R.jpg,1063.6983851000114,None,down,0.010687400004826486,1063.6983851000114,None,None,None,001,001,A,2022_Mar_07_1814,270300_Mental_Rotation,2021.2.3,144.17781161261973,
,,,,230,0,230,0,,,,,,,,,,,,,,,,,,,,,,,,,,,,,,,,,,,,,,1063.730937100001,None,9.383998985867947e-05,1.0000938399898587,1,Stimuli_3D\hard\29_150.jpg,1064.7352814000042,None,up,0.4488805000000866,1064.7352814000042,None,1065.2083183000068,None,001,001,A,2022_Mar_07_1814,270300_Mental_Rotation,2021.2.3,144.17781161261973,
,,,,231,0,231,0,,,,,,,,,,,,,,,,,,,,,,,,,,,,,,,,,,,,,,1068.2154932000121,None,0.000747419981053099,1.000747419981053,1,Stimuli_3D\hard\29_150_R.jpg,1069.2190933000093,None,down,0.17791610000131186,1069.2190933000093,None,None,None,001,001,A,2022_Mar_07_1814,270300_Mental_Rotation,2021.2.3,144.17781161261973,
,,,,232,0,232,0,,,,,,,,,,,,,,,,,,,,,,,,,,,,,,,,,,,,,,1069.4234929000086,None,0.006336079997709021,1.006336079997709,1,Stimuli_3D\hard\30_0.jpg,1070.4271261000104,None,up,0.17005909999716096,1070.4271261000104,None,None,None,001,001,A,2022_Mar_07_1814,270300_Mental_Rotation,2021.2.3,144.17781161261973,
,,,,233,0,233,0,,,,,,,,,,,,,,,,,,,,,,,,,,,,,,,,,,,,,,1070.633771000008,None,0.006479299991042353,1.0064792999910424,1,Stimuli_3D\hard\30_0_R.jpg,1071.6362254999985,None,down,0.12332369999785442,1071.6362254999985,None,None,None,001,001,A,2022_Mar_07_1814,270300_Mental_Rotation,2021.2.3,144.17781161261973,
,,,,234,0,234,0,,,,,,,,,,,,,,,,,,,,,,,,,,,,,,,,,,,,,,1071.8006975000026,None,0.0029135999939171597,1.0029135999939172,1,Stimuli_3D\hard\30_50.jpg,1072.8047127000027,None,up,0.1173588999954518,1072.8047127000027,None,None,None,001,001,A,2022_Mar_07_1814,270300_Mental_Rotation,2021.2.3,144.17781161261973,
,,,,235,0,235,0,,,,,,,,,,,,,,,,,,,,,,,,,,,,,,,,,,,,,,1072.9520592000044,None,0.0017668800137471408,1.0017668800137471,1,Stimuli_3D\hard\30_50_R.jpg,1073.9546637000021,None,down,0.02919669999391772,1073.9546637000021,None,None,None,001,001,A,2022_Mar_07_1814,270300_Mental_Rotation,2021.2.3,144.17781161261973,
,,,,236,0,236,0,,,,,,,,,,,,,,,,,,,,,,,,,,,,,,,,,,,,,,1074.0070180000039,None,0.0069108600000618026,1.0069108600000618,1,Stimuli_3D\hard\30_100.jpg,1075.0137474000076,None,up,0.03287190000992268,1075.0137474000076,None,None,None,001,001,A,2022_Mar_07_1814,270300_Mental_Rotation,2021.2.3,144.17781161261973,
,,,,237,0,237,0,,,,,,,,,,,,,,,,,,,,,,,,,,,,,,,,,,,,,,1075.0791525000095,None,0.005268380002235062,1.005268380002235,1,Stimuli_3D\hard\30_100_R.jpg,1076.0888957999996,None,down,0.032627200009301305,1076.0888957999996,None,None,None,001,001,A,2022_Mar_07_1814,270300_Mental_Rotation,2021.2.3,144.17781161261973,
,,,,238,0,238,0,,,,,,,,,,,,,,,,,,,,,,,,,,,,,,,,,,,,,,1076.1391662000096,None,0.00040033998084254563,1.0004003399808425,1,Stimuli_3D\hard\30_150.jpg,1077.1440677000064,None,up,0.6154629000084242,1077.1440677000064,None,None,None,001,001,A,2022_Mar_07_1814,270300_Mental_Rotation,2021.2.3,144.17781161261973,
,,,,239,0,239,0,,,,,,,,,,,,,,,,,,,,,,,,,,,,,,,,,,,,,,1077.8010843000084,None,0.0018481999868527055,1.0018481999868527,1,Stimuli_3D\hard\30_150_R.jpg,1078.8046452999988,None,down,0.22996060000150464,1078.8046452999988,None,None,None,001,001,A,2022_Mar_07_1814,270300_Mental_Rotation,2021.2.3,144.17781161261973,
,,,,240,0,240,0,,,,,,,,,,,,,,,,,,,,,,,,,,,,,,,,,,,,,,1079.0651766000083,None,0.00214628002140671,1.0021462800214067,1,Stimuli_3D\hard\31_0.jpg,1080.0810102000105,None,up,0.05313059999025427,1080.0810102000105,None,1080.1537278000033,None,001,001,A,2022_Mar_07_1814,270300_Mental_Rotation,2021.2.3,144.17781161261973,
,,,,241,0,241,0,,,,,,,,,,,,,,,,,,,,,,,,,,,,,,,,,,,,,,1083.1579149000027,None,0.0006807199970353395,1.0006807199970353,1,Stimuli_3D\hard\31_0_R.jpg,1084.161754700006,None,down,0.1354089000087697,1084.161754700006,None,None,None,001,001,A,2022_Mar_07_1814,270300_Mental_Rotation,2021.2.3,144.17781161261973,
,,,,242,0,242,0,,,,,,,,,,,,,,,,,,,,,,,,,,,,,,,,,,,,,,1084.3330005000025,None,0.004873499987297691,1.0048734999872977,1,Stimuli_3D\hard\31_50.jpg,1085.3361246999993,None,up,0.1612201000098139,1085.3361246999993,None,None,None,001,001,A,2022_Mar_07_1814,270300_Mental_Rotation,2021.2.3,144.17781161261973,
,,,,243,0,243,0,,,,,,,,,,,,,,,,,,,,,,,,,,,,,,,,,,,,,,1085.5289076000045,None,0.0002377800119575113,1.0002377800119575,1,Stimuli_3D\hard\31_50_R.jpg,1086.5311619999993,None,down,0.12840839999262244,1086.5311619999993,None,None,None,001,001,A,2022_Mar_07_1814,270300_Mental_Rotation,2021.2.3,144.17781161261973,
,,,,244,0,244,0,,,,,,,,,,,,,,,,,,,,,,,,,,,,,,,,,,,,,,1086.6965877000039,None,0.0019801000162260607,1.001980100016226,1,Stimuli_3D\hard\31_100.jpg,1087.7071022000018,None,up,0.17762539999966975,1087.7071022000018,None,None,None,001,001,A,2022_Mar_07_1814,270300_Mental_Rotation,2021.2.3,144.17781161261973,
,,,,245,0,245,0,,,,,,,,,,,,,,,,,,,,,,,,,,,,,,,,,,,,,,1087.9178850000026,None,0.005844600003911182,1.0058446000039112,1,Stimuli_3D\hard\31_100_R.jpg,1088.9213127000112,None,down,0.05003020000003744,1088.9213127000112,None,None,None,001,001,A,2022_Mar_07_1814,270300_Mental_Rotation,2021.2.3,144.17781161261973,
,,,,246,0,246,0,,,,,,,,,,,,,,,,,,,,,,,,,,,,,,,,,,,,,,1088.9917769000022,None,0.006855560015537776,1.0068555600155378,1,Stimuli_3D\hard\31_150.jpg,1089.9959818000061,None,up,0.013035299998591654,1089.9959818000061,None,None,None,001,001,A,2022_Mar_07_1814,270300_Mental_Rotation,2021.2.3,144.17781161261973,
,,,,247,0,247,0,,,,,,,,,,,,,,,,,,,,,,,,,,,,,,,,,,,,,,1090.0288109000103,None,0.00013104001118335873,1.0001310400111834,1,Stimuli_3D\hard\31_150_R.jpg,1091.032847200011,None,down,0.47697670001070946,1091.032847200011,None,None,None,001,001,A,2022_Mar_07_1814,270300_Mental_Rotation,2021.2.3,144.17781161261973,
,,,,248,0,248,0,,,,,,,,,,,,,,,,,,,,,,,,,,,,,,,,,,,,,,1091.546359800006,None,0.0029800000047544017,1.0029800000047544,1,Stimuli_3D\hard\32_0.jpg,1092.549033000003,None,up,0.3854575000004843,1092.549033000003,None,None,None,001,001,A,2022_Mar_07_1814,270300_Mental_Rotation,2021.2.3,144.17781161261973,
,,,,249,0,249,0,,,,,,,,,,,,,,,,,,,,,,,,,,,,,,,,,,,,,,1092.9754376000055,None,0.005526119988644496,1.0055261199886445,1,Stimuli_3D\hard\32_0_R.jpg,1093.9824453000037,None,down,0.4019131999957608,1093.9824453000037,None,None,None,001,001,A,2022_Mar_07_1814,270300_Mental_Rotation,2021.2.3,144.17781161261973,
,,,,250,0,250,0,,,,,,,,,,,,,,,,,,,,,,,,,,,,,,,,,,,,,,1094.4142439999996,None,0.0023507800069637597,1.0023507800069638,1,Stimuli_3D\hard\32_50.jpg,1095.4178238000022,None,up,0.19150600000284612,1095.4178238000022,None,1095.6348087000079,None,001,001,A,2022_Mar_07_1814,270300_Mental_Rotation,2021.2.3,144.17781161261973,
,,,,251,0,251,0,,,,,,,,,,,,,,,,,,,,,,,,,,,,,,,,,,,,,,1098.6499034000008,None,0.0005123399896547198,1.0005123399896547,1,Stimuli_3D\hard\32_50_R.jpg,1099.6614612000121,None,down,0.035492800001520663,1099.6614612000121,None,None,None,001,001,A,2022_Mar_07_1814,270300_Mental_Rotation,2021.2.3,144.17781161261973,
,,,,252,0,252,0,,,,,,,,,,,,,,,,,,,,,,,,,,,,,,,,,,,,,,1099.723812199998,None,0.006250480000744574,1.0062504800007446,1,Stimuli_3D\hard\32_100.jpg,1100.7310246000125,None,up,0.21594890000415035,1100.7310246000125,None,None,None,001,001,A,2022_Mar_07_1814,270300_Mental_Rotation,2021.2.3,144.17781161261973,
,,,,253,0,253,0,,,,,,,,,,,,,,,,,,,,,,,,,,,,,,,,,,,,,,1100.9853359000117,None,0.001544999991892837,1.0015449999918928,1,Stimuli_3D\hard\32_100_R.jpg,1101.9952373999986,None,down,0.16416349999781232,1101.9952373999986,None,None,None,001,001,A,2022_Mar_07_1814,270300_Mental_Rotation,2021.2.3,144.17781161261973,
,,,,254,0,254,0,,,,,,,,,,,,,,,,,,,,,,,,,,,,,,,,,,,,,,1102.1832639000058,None,0.0017519600078230724,1.001751960007823,1,Stimuli_3D\hard\32_150.jpg,1103.1861505000124,None,up,0.08576509999693371,1103.1861505000124,None,None,None,001,001,A,2022_Mar_07_1814,270300_Mental_Rotation,2021.2.3,144.17781161261973,
,,,,255,0,255,0,,,,,,,,,,,,,,,,,,,,,,,,,,,,,,,,,,,,,,1103.30401230001,None,0.006414000017684884,1.0064140000176849,1,Stimuli_3D\hard\32_150_R.jpg,1104.3067091999983,None,down,0.06484000000637025,1104.3067091999983,None,None,None,001,001,A,2022_Mar_07_1814,270300_Mental_Rotation,2021.2.3,144.17781161261973,
,,,,256,0,256,0,,,,,,,,,,,,,,,,,,,,,,,,,,,,,,,,,,,,,,1104.4017049000104,None,0.0054633800173178315,1.0054633800173178,1,Stimuli_3D\hard\33_0.jpg,1105.4048169000016,None,up,0.155238699997426,1105.4048169000016,None,None,None,001,001,A,2022_Mar_07_1814,270300_Mental_Rotation,2021.2.3,144.17781161261973,
,,,,257,0,257,0,,,,,,,,,,,,,,,,,,,,,,,,,,,,,,,,,,,,,,1105.6010838000075,None,0.0038557000079890713,1.003855700007989,1,Stimuli_3D\hard\33_0_R.jpg,1106.6043504000118,None,down,0.029589099998702295,1106.6043504000118,None,None,None,001,001,A,2022_Mar_07_1814,270300_Mental_Rotation,2021.2.3,144.17781161261973,
,,,,258,0,258,0,,,,,,,,,,,,,,,,,,,,,,,,,,,,,,,,,,,,,,1106.6562510000076,None,0.006476259994087741,1.0064762599940877,1,Stimuli_3D\hard\33_50.jpg,1107.6601889000012,None,up,0.02425829999265261,1107.6601889000012,None,None,None,001,001,A,2022_Mar_07_1814,270300_Mental_Rotation,2021.2.3,144.17781161261973,
,,,,259,0,259,0,,,,,,,,,,,,,,,,,,,,,,,,,,,,,,,,,,,,,,1107.7234163000103,None,0.0043043999903602526,1.0043043999903603,1,Stimuli_3D\hard\33_50_R.jpg,1108.7302337,None,down,0.4417985000036424,1108.7302337,None,None,None,001,001,A,2022_Mar_07_1814,270300_Mental_Rotation,2021.2.3,144.17781161261973,
,,,,260,0,260,0,,,,,,,,,,,,,,,,,,,,,,,,,,,,,,,,,,,,,,1109.2069413999998,None,0.005087500001536682,1.0050875000015367,1,Stimuli_3D\hard\33_100.jpg,1110.2089861999993,None,up,0.18739360000472516,1110.2089861999993,None,1110.4203787000006,None,001,001,A,2022_Mar_07_1814,270300_Mental_Rotation,2021.2.3,144.17781161261973,
,,,,261,0,261,0,,,,,,,,,,,,,,,,,,,,,,,,,,,,,,,,,,,,,,1113.4301566000067,None,0.003317739989142865,1.0033177399891429,1,Stimuli_3D\hard\33_100_R.jpg,1114.43279050001,None,down,0.9023422000027495,1114.43279050001,None,None,None,001,001,A,2022_Mar_07_1814,270300_Mental_Rotation,2021.2.3,144.17781161261973,
,,,,262,0,262,0,,,,,,,,,,,,,,,,,,,,,,,,,,,,,,,,,,,,,,1115.364849000005,None,0.002078980003716424,1.0020789800037164,1,Stimuli_3D\hard\33_150.jpg,1116.3667767000006,None,up,0.20519039999635424,1116.3667767000006,None,None,None,001,001,A,2022_Mar_07_1814,270300_Mental_Rotation,2021.2.3,144.17781161261973,
,,,,263,0,263,0,,,,,,,,,,,,,,,,,,,,,,,,,,,,,,,,,,,,,,1116.609437600011,None,0.0011404800025047734,1.0011404800025048,1,Stimuli_3D\hard\33_150_R.jpg,1117.612381400002,None,down,0.1340924999967683,1117.612381400002,None,None,None,001,001,A,2022_Mar_07_1814,270300_Mental_Rotation,2021.2.3,144.17781161261973,
,,,,264,0,264,0,,,,,,,,,,,,,,,,,,,,,,,,,,,,,,,,,,,,,,1117.765929000001,None,0.005942760006291792,1.0059427600062918,1,Stimuli_3D\hard\34_0.jpg,1118.7698581000004,None,up,0.23978820000775158,1118.7698581000004,None,None,None,001,001,A,2022_Mar_07_1814,270300_Mental_Rotation,2021.2.3,144.17781161261973,
,,,,265,0,265,0,,,,,,,,,,,,,,,,,,,,,,,,,,,,,,,,,,,,,,1119.0459542000026,None,0.006322100016404875,1.0063221000164049,1,Stimuli_3D\hard\34_0_R.jpg,1120.0483615999983,None,down,0.19818530000338797,1120.0483615999983,None,None,None,001,001,A,2022_Mar_07_1814,270300_Mental_Rotation,2021.2.3,144.17781161261973,
,,,,266,0,266,0,,,,,,,,,,,,,,,,,,,,,,,,,,,,,,,,,,,,,,1120.2651781000022,None,0.006821460003266111,1.006821460003266,1,Stimuli_3D\hard\34_50.jpg,1121.2691478000052,None,up,0.26531220000470057,1121.2691478000052,None,None,None,001,001,A,2022_Mar_07_1814,270300_Mental_Rotation,2021.2.3,144.17781161261973,
,,,,267,0,267,0,,,,,,,,,,,,,,,,,,,,,,,,,,,,,,,,,,,,,,1121.5736375999986,None,0.0060323000070638955,1.006032300007064,1,Stimuli_3D\hard\34_50_R.jpg,1122.5825899000047,None,down,0.20172159999492578,1122.5825899000047,None,None,None,001,001,A,2022_Mar_07_1814,270300_Mental_Rotation,2021.2.3,144.17781161261973,
,,,,268,0,268,0,,,,,,,,,,,,,,,,,,,,,,,,,,,,,,,,,,,,,,1122.8204294000025,None,0.0010793799883686006,1.0010793799883686,1,Stimuli_3D\hard\34_100.jpg,1123.8231884000124,None,up,0.3491368999966653,1123.8231884000124,None,None,None,001,001,A,2022_Mar_07_1814,270300_Mental_Rotation,2021.2.3,144.17781161261973,
,,,,269,0,269,0,,,,,,,,,,,,,,,,,,,,,,,,,,,,,,,,,,,,,,1124.2207494000031,None,0.005925019984715618,1.0059250199847156,1,Stimuli_3D\hard\34_100_R.jpg,1125.2273985000065,None,down,0.20689039998978842,1125.2273985000065,None,None,None,001,001,A,2022_Mar_07_1814,270300_Mental_Rotation,2021.2.3,144.17781161261973,
,,,,270,0,270,0,,,,,,,,,,,,,,,,,,,,,,,,,,,,,,,,,,,,,,1125.4553950000118,None,0.003962660004617646,1.0039626600046176,1,Stimuli_3D\hard\34_150.jpg,1126.458393000008,None,up,1.4137729000067338,1126.458393000008,None,1127.9172142000025,None,001,001,A,2022_Mar_07_1814,270300_Mental_Rotation,2021.2.3,144.17781161261973,
,,,,271,0,271,0,,,,,,,,,,,,,,,,,,,,,,,,,,,,,,,,,,,,,,1130.9224257000023,None,0.0005632200045511127,1.0005632200045511,1,Stimuli_3D\hard\34_150_R.jpg,1131.9258170000103,None,down,0.6965506999986246,1131.9258170000103,None,None,None,001,001,A,2022_Mar_07_1814,270300_Mental_Rotation,2021.2.3,144.17781161261973,
,,,,272,0,272,0,,,,,,,,,,,,,,,,,,,,,,,,,,,,,,,,,,,,,,1132.6547323999985,None,0.006845299998531118,1.0068452999985311,1,Stimuli_3D\hard\35_0.jpg,1133.6579809000104,None,up,0.4266800999903353,1133.6579809000104,None,None,None,001,001,A,2022_Mar_07_1814,270300_Mental_Rotation,2021.2.3,144.17781161261973,
,,,,273,0,273,0,,,,,,,,,,,,,,,,,,,,,,,,,,,,,,,,,,,,,,1134.1188281000068,None,0.004732799992780201,1.0047327999927802,1,Stimuli_3D\hard\35_0_R.jpg,1135.1252612000098,None,down,0.821582499993383,1135.1252612000098,None,None,None,001,001,A,2022_Mar_07_1814,270300_Mental_Rotation,2021.2.3,144.17781161261973,
,,,,274,0,274,0,,,,,,,,,,,,,,,,,,,,,,,,,,,,,,,,,,,,,,1135.9821702000045,None,0.004771899984916672,1.0047718999849167,1,Stimuli_3D\hard\35_50.jpg,1136.98538920001,None,up,0.7735244999930728,1136.98538920001,None,None,None,001,001,A,2022_Mar_07_1814,270300_Mental_Rotation,2021.2.3,144.17781161261973,
,,,,275,0,275,0,,,,,,,,,,,,,,,,,,,,,,,,,,,,,,,,,,,,,,1137.776350500004,None,0.00040704000275582075,1.0004070400027558,1,Stimuli_3D\hard\35_50_R.jpg,1138.7798364000046,None,down,0.4921179000084521,1138.7798364000046,None,None,None,001,001,A,2022_Mar_07_1814,270300_Mental_Rotation,2021.2.3,144.17781161261973,
,,,,276,0,276,0,,,,,,,,,,,,,,,,,,,,,,,,,,,,,,,,,,,,,,1139.314780300003,None,0.0016925999952945858,1.0016925999952946,1,Stimuli_3D\hard\35_100.jpg,1140.3171681000094,None,up,0.39218439999967813,1140.3171681000094,None,None,None,001,001,A,2022_Mar_07_1814,270300_Mental_Rotation,2021.2.3,144.17781161261973,
,,,,277,0,277,0,,,,,,,,,,,,,,,,,,,,,,,,,,,,,,,,,,,,,,1140.743566300007,None,0.005745200003730133,1.0057452000037301,1,Stimuli_3D\hard\35_100_R.jpg,1141.7471388999984,None,down,0.16235530000994913,1141.7471388999984,None,None,None,001,001,A,2022_Mar_07_1814,270300_Mental_Rotation,2021.2.3,144.17781161261973,
,,,,278,0,278,0,,,,,,,,,,,,,,,,,,,,,,,,,,,,,,,,,,,,,,1141.9486964000098,None,0.005859299999428913,1.005859299999429,1,Stimuli_3D\hard\35_150.jpg,1142.9542761000048,None,up,0.04211059999943245,1142.9542761000048,None,None,None,001,001,A,2022_Mar_07_1814,270300_Mental_Rotation,2021.2.3,144.17781161261973,
,,,,279,0,279,0,,,,,,,,,,,,,,,,,,,,,,,,,,,,,,,,,,,,,,1143.0179482000094,None,0.00043123999785166234,1.0004312399978517,1,Stimuli_3D\hard\35_150_R.jpg,1144.0208593999996,None,down,0.20144669999717735,1144.0208593999996,None,None,None,001,001,A,2022_Mar_07_1814,270300_Mental_Rotation,2021.2.3,144.17781161261973,
,,,,280,0,280,0,,,,,,,,,,,,,,,,,,,,,,,,,,,,,,,,,,,,,,1144.242078100011,None,0.0007781399908708408,1.0007781399908708,1,Stimuli_3D\hard\36_0.jpg,1145.2460636000033,None,up,0.5136740000016289,1145.2460636000033,None,1145.7997056000022,None,001,001,A,2022_Mar_07_1814,270300_Mental_Rotation,2021.2.3,144.17781161261973,
,,,,281,0,281,0,,,,,,,,,,,,,,,,,,,,,,,,,,,,,,,,,,,,,,1148.8090567000036,None,0.0006912200042279437,1.000691220004228,1,Stimuli_3D\hard\36_0_R.jpg,1149.8120686000038,None,down,0.009419699999853037,1149.8120686000038,None,None,None,001,001,A,2022_Mar_07_1814,270300_Mental_Rotation,2021.2.3,144.17781161261973,
,,,,282,0,282,0,,,,,,,,,,,,,,,,,,,,,,,,,,,,,,,,,,,,,,1149.838912799998,None,0.006634160003159195,1.0066341600031592,1,Stimuli_3D\hard\36_50.jpg,1150.8427651000093,None,up,0.09195489999547135,1150.8427651000093,None,None,None,001,001,A,2022_Mar_07_1814,270300_Mental_Rotation,2021.2.3,144.17781161261973,
,,,,283,0,283,0,,,,,,,,,,,,,,,,,,,,,,,,,,,,,,,,,,,,,,1150.9607632000116,None,0.0026685600023483858,1.0026685600023484,1,Stimuli_3D\hard\36_50_R.jpg,1151.9643068000005,None,down,0.19505940000817645,1151.9643068000005,None,None,None,001,001,A,2022_Mar_07_1814,270300_Mental_Rotation,2021.2.3,144.17781161261973,
,,,,284,0,284,0,,,,,,,,,,,,,,,,,,,,,,,,,,,,,,,,,,,,,,1152.1930380000122,None,0.0010817799920914695,1.0010817799920915,1,Stimuli_3D\hard\36_100.jpg,1153.196671400001,None,up,0.17566700000315905,1153.196671400001,None,None,None,001,001,A,2022_Mar_07_1814,270300_Mental_Rotation,2021.2.3,144.17781161261973,
,,,,285,0,285,0,,,,,,,,,,,,,,,,,,,,,,,,,,,,,,,,,,,,,,1153.4052663000039,None,0.005362700001569465,1.0053627000015695,1,Stimuli_3D\hard\36_100_R.jpg,1154.4089108000044,None,down,0.20070299999497365,1154.4089108000044,None,None,None,001,001,A,2022_Mar_07_1814,270300_Mental_Rotation,2021.2.3,144.17781161261973,
,,,,286,0,286,0,,,,,,,,,,,,,,,,,,,,,,,,,,,,,,,,,,,,,,1154.6437963000062,None,0.006522099996800534,1.0065220999968005,1,Stimuli_3D\hard\36_150.jpg,1155.6478859000053,None,up,0.27418520000355784,1155.6478859000053,None,None,None,001,001,A,2022_Mar_07_1814,270300_Mental_Rotation,2021.2.3,144.17781161261973,
,,,,287,0,287,0,,,,,,,,,,,,,,,,,,,,,,,,,,,,,,,,,,,,,,1155.9591041000094,None,0.0017203799943672493,1.0017203799943672,1,Stimuli_3D\hard\36_150_R.jpg,1156.965226500004,None,down,0.18190450000111014,1156.965226500004,None,None,None,001,001,A,2022_Mar_07_1814,270300_Mental_Rotation,2021.2.3,144.17781161261973,
,,,,288,0,288,0,,,,,,,,,,,,,,,,,,,,,,,,,,,,,,,,,,,,,,1157.168629000007,None,0.0034883600019384176,1.0034883600019384,1,Stimuli_3D\hard\37_0.jpg,1158.1733339000057,None,up,0.29799560000537895,1158.1733339000057,None,None,None,001,001,A,2022_Mar_07_1814,270300_Mental_Rotation,2021.2.3,144.17781161261973,
,,,,289,0,289,0,,,,,,,,,,,,,,,,,,,,,,,,,,,,,,,,,,,,,,1158.4889403000125,None,0.006823260002420284,1.0068232600024203,1,Stimuli_3D\hard\37_0_R.jpg,1159.4954284999985,None,down,0.07612919999519363,1159.4954284999985,None,None,None,001,001,A,2022_Mar_07_1814,270300_Mental_Rotation,2021.2.3,144.17781161261973,
,,,,290,0,290,0,,,,,,,,,,,,,,,,,,,,,,,,,,,,,,,,,,,,,,1159.596951200001,None,0.003326660007587634,1.0033266600075876,1,Stimuli_3D\hard\37_50.jpg,1160.5997758000012,None,up,0.20918150000215974,1160.5997758000012,None,1160.8349147000117,None,001,001,A,2022_Mar_07_1814,270300_Mental_Rotation,2021.2.3,144.17781161261973,
,,,,291,0,291,0,,,,,,,,,,,,,,,,,,,,,,,,,,,,,,,,,,,,,,1163.8421320000052,None,9.262000094167888e-05,1.0000926200009417,1,Stimuli_3D\hard\37_50_R.jpg,1164.8461211000104,None,down,0.26354100000753533,1164.8461211000104,None,None,None,001,001,A,2022_Mar_07_1814,270300_Mental_Rotation,2021.2.3,144.17781161261973,
,,,,292,0,292,0,,,,,,,,,,,,,,,,,,,,,,,,,,,,,,,,,,,,,,1165.1501797000092,None,0.0022592000022996217,1.0022592000022996,1,Stimuli_3D\hard\37_100.jpg,1166.157043500003,None,up,0.10257500001171138,1166.157043500003,None,None,None,001,001,A,2022_Mar_07_1814,270300_Mental_Rotation,2021.2.3,144.17781161261973,
,,,,293,0,293,0,,,,,,,,,,,,,,,,,,,,,,,,,,,,,,,,,,,,,,1166.3052177000063,None,0.00580551999155432,1.0058055199915543,1,Stimuli_3D\hard\37_100_R.jpg,1167.3130696000007,None,down,0.0832823999953689,1167.3130696000007,None,None,None,001,001,A,2022_Mar_07_1814,270300_Mental_Rotation,2021.2.3,144.17781161261973,
,,,,294,0,294,0,,,,,,,,,,,,,,,,,,,,,,,,,,,,,,,,,,,,,,1167.4182580000052,None,0.006629260009503923,1.006629260009504,1,Stimuli_3D\hard\37_150.jpg,1168.422072900008,None,up,0.12476860001333989,1168.422072900008,None,None,None,001,001,A,2022_Mar_07_1814,270300_Mental_Rotation,2021.2.3,144.17781161261973,
,,,,295,0,295,0,,,,,,,,,,,,,,,,,,,,,,,,,,,,,,,,,,,,,,1168.5825276000105,None,0.0064393999928142875,1.0064393999928143,1,Stimuli_3D\hard\37_150_R.jpg,1169.5905725000048,None,down,0.33159319999685977,1169.5905725000048,None,None,None,001,001,A,2022_Mar_07_1814,270300_Mental_Rotation,2021.2.3,144.17781161261973,
,,,,296,0,296,0,,,,,,,,,,,,,,,,,,,,,,,,,,,,,,,,,,,,,,1169.9584528000123,None,0.006112200004281476,1.0061122000042815,1,Stimuli_3D\hard\38_0.jpg,1170.9623026000045,None,up,0.02166830000351183,1170.9623026000045,None,None,None,001,001,A,2022_Mar_07_1814,270300_Mental_Rotation,2021.2.3,144.17781161261973,
,,,,297,0,297,0,,,,,,,,,,,,,,,,,,,,,,,,,,,,,,,,,,,,,,1171.0019275000086,None,4.143999831285328e-05,1.0000414399983129,1,Stimuli_3D\hard\38_0_R.jpg,1172.0038877000043,None,down,0.14323370000056457,1172.0038877000043,None,None,None,001,001,A,2022_Mar_07_1814,270300_Mental_Rotation,2021.2.3,144.17781161261973,
,,,,298,0,298,0,,,,,,,,,,,,,,,,,,,,,,,,,,,,,,,,,,,,,,1172.179525700005,None,0.005847100022947416,1.0058471000229474,1,Stimuli_3D\hard\38_50.jpg,1173.1826800999988,None,up,0.6769656999967992,1173.1826800999988,None,None,None,001,001,A,2022_Mar_07_1814,270300_Mental_Rotation,2021.2.3,144.17781161261973,
,,,,299,0,299,0,,,,,,,,,,,,,,,,,,,,,,,,,,,,,,,,,,,,,,1173.8979397000076,None,0.0061261999944690615,1.006126199994469,1,Stimuli_3D\hard\38_50_R.jpg,1174.9024568000023,None,down,0.621070499997586,1174.9024568000023,None,None,None,001,001,A,2022_Mar_07_1814,270300_Mental_Rotation,2021.2.3,144.17781161261973,
,,,,300,0,300,0,,,,,,,,,,,,,,,,,,,,,,,,,,,,,,,,,,,,,,1175.54619980001,None,0.0004015400045318529,1.0004015400045319,1,Stimuli_3D\hard\38_100.jpg,1176.549866100002,None,up,0.20975379999435972,1176.549866100002,None,1176.7994772000093,None,001,001,A,2022_Mar_07_1814,270300_Mental_Rotation,2021.2.3,144.17781161261973,
