trials_2D.thisRepN,trials_2D.thisTrialN,trials_2D.thisN,trials_2D.thisIndex,trials_3D.thisRepN,trials_3D.thisTrialN,trials_3D.thisN,trials_3D.thisIndex,instr_2D.started,instr_2D.stopped,instr_2D_kb.keys,instr_2D_kb.rt,instr_2D_kb.started,instr_2D_kb.stopped,fix_point_2D.started,fix_point_2D.stopped,fix_point_2D_ISI.started,fix_point_2D_ISI.stopped,x_pos_correct,x_pos_wrong,img_correct,img_wrong,img_target,trial_2D_mouse.x,trial_2D_mouse.y,trial_2D_mouse.leftButton,trial_2D_mouse.midButton,trial_2D_mouse.rightButton,trial_2D_mouse.time,trial_2D_mouse.clicked_name,trial_2D_mouse.clicked_pos,trial_2D_mouse.started,trial_2D_mouse.stopped,img_correct.started,img_correct.stopped,img_target.started,img_target.stopped,img_wrong.started,img_wrong.stopped,instr_3D.started,instr_3D.stopped,instr_3D_kb.keys,instr_3D_kb.rt,instr_3D_kb.started,instr_3D_kb.stopped,fix_point_3D.started,fix_point_3D.stopped,fix_point_3D_ISI.started,fix_point_3D_ISI.stopped,corrAns,stim_path,Rotation_Degree,Same_or_Diff,stim_3D.started,stim_3D.stopped,key_resp_3D.keys,key_resp_3D.rt,key_resp_3D.started,key_resp_3D.stopped,feedback_text.started,feedback_text.stopped,participant,session,group,date,expName,psychopyVersion,frameRate,
,,,,,,,,14.729068000000552,None,space,0.8631505000084871,14.729068000000552,None,,,,,,,,,,,,,,,,,,,,,,,,,,,,,,,,,,,,,,,,,,,,,,,,002,001,B,2022_Mar_07_2107,270300_Mental_Rotation,2021.2.3,143.21066862017952,
0,0,0,0,,,,,,,,,,,15.617454699997324,None,0.0007939399947645143,1.0007939399947645,-250,250,Stimuli_2d/correct11.png,Stimuli_2d/wrong11.png,Stimuli_2d/target11.png,-0.19722222,-0.028703704,1,0,0,0.2071416999970097,img_correct,[-250. -139.],0.00551573999109678,None,16.607276999988244,None,16.607276999988244,None,16.607276999988244,None,,,,,,,,,,,,,,,,,,,,,,,002,001,B,2022_Mar_07_2107,270300_Mental_Rotation,2021.2.3,143.21066862017952,
1,0,1,0,,,,,,,,,,,16.81951570000092,None,0.0007279400015249848,1.000727940001525,250,-250,Stimuli_2d/correct1.png,Stimuli_2d/wrong1.png,Stimuli_2d/target1.png,-0.19444445,-0.087037034,1,0,0,0.16200499999104068,img_wrong,[-250. -139.],0.0045361399970715865,None,17.82021769999119,None,17.82021769999119,None,17.82021769999119,None,,,,,,,,,,,,,,,,,,,,,,,002,001,B,2022_Mar_07_2107,270300_Mental_Rotation,2021.2.3,143.21066862017952,
2,0,2,0,,,,,,,,,,,17.986438899999484,None,0.0002804399991873652,1.0002804399991874,250,-250,Stimuli_2d/correct15.png,Stimuli_2d/wrong15.png,Stimuli_2d/target15.png,-0.20277777,-0.08981481,1,0,0,0.09839959999953862,img_wrong,[-250. -139.],0.004649540001992136,None,18.987151099994662,None,18.987151099994662,None,18.987151099994662,None,,,,,,,,,,,,,,,,,,,,,,,002,001,B,2022_Mar_07_2107,270300_Mental_Rotation,2021.2.3,143.21066862017952,
3,0,3,0,,,,,,,,,,,19.088478199992096,None,0.0015357399970525876,1.0015357399970526,250,-250,Stimuli_2d/correct3.png,Stimuli_2d/wrong3.png,Stimuli_2d/target3.png,-0.20277777,-0.08981481,1,0,0,0.058409799996297807,img_wrong,[-250. -139.],0.0038858399930177256,None,20.089732299995376,None,20.089732299995376,None,20.089732299995376,None,,,,,,,,,,,,,,,,,,,,,,,002,001,B,2022_Mar_07_2107,270300_Mental_Rotation,2021.2.3,143.21066862017952,
4,0,4,0,,,,,,,,,,,20.15099169999303,None,0.001340239992714487,1.0013402399927145,-250,250,Stimuli_2d/correct9.png,Stimuli_2d/wrong9.png,Stimuli_2d/target9.png,-0.2037037,-0.08888889,1,0,0,0.08526359999086708,img_correct,[-250. -139.],0.0039103400049498305,None,21.152707199988072,None,21.152707199988072,None,21.152707199988072,None,,,,,,,,,,,,,,,,,,,,,,,002,001,B,2022_Mar_07_2107,270300_Mental_Rotation,2021.2.3,143.21066862017952,
5,0,5,0,,,,,,,,,,,21.241195499998867,None,0.0014071400073589757,1.001407140007359,-250,250,Stimuli_2d/correct4.png,Stimuli_2d/wrong4.png,Stimuli_2d/target4.png,-0.2037037,-0.08888889,1,0,0,0.18309079999744426,img_correct,[-250. -139.],0.0038137399969855323,None,22.242522899992764,None,22.242522899992764,None,22.242522899992764,None,,,,,,,,,,,,,,,,,,,,,,,002,001,B,2022_Mar_07_2107,270300_Mental_Rotation,2021.2.3,143.21066862017952,
6,0,6,0,,,,,,,,,,,22.429756300000008,None,0.000795340005424805,1.0007953400054248,250,-250,Stimuli_2d/correct10.png,Stimuli_2d/wrong10.png,Stimuli_2d/target10.png,-0.2037037,-0.08888889,1,0,0,0.011335200004396029,img_wrong,[-250. -139.],0.0042304399976274,None,23.430559699991136,None,23.430559699991136,None,23.430559699991136,None,,,,,,,,,,,,,,,,,,,,,,,002,001,B,2022_Mar_07_2107,270300_Mental_Rotation,2021.2.3,143.21066862017952,
7,0,7,0,,,,,,,,,,,23.444643700000597,None,0.0019964400125900283,1.00199644001259,-250,250,Stimuli_2d/correct6.png,Stimuli_2d/wrong6.png,Stimuli_2d/target6.png,-0.2037037,-0.087037034,1,0,0,0.11752639999031089,img_correct,[-250. -139.],0.00441713999316562,None,24.446217199991224,None,24.446217199991224,None,24.446217199991224,None,,,,,,,,,,,,,,,,,,,,,,,002,001,B,2022_Mar_07_2107,270300_Mental_Rotation,2021.2.3,143.21066862017952,
8,0,8,0,,,,,,,,,,,24.56716599999345,None,0.00205763999838382,1.0020576399983838,-250,250,Stimuli_2d/correct8.png,Stimuli_2d/wrong8.png,Stimuli_2d/target8.png,-0.2037037,-0.087037034,1,0,0,0.05121440000948496,img_correct,[-250. -139.],0.003745640002307482,None,25.567554199995357,None,25.567554199995357,None,25.567554199995357,None,,,,,,,,,,,,,,,,,,,,,,,002,001,B,2022_Mar_07_2107,270300_Mental_Rotation,2021.2.3,143.21066862017952,
9,0,9,0,,,,,,,,,,,25.621309299996938,None,0.0027551399980438873,1.0027551399980439,250,-250,Stimuli_2d/correct2.png,Stimuli_2d/wrong2.png,Stimuli_2d/target2.png,-0.2037037,-0.08888889,1,0,0,0.053764500000397675,img_wrong,[-250. -139.],0.004416540003148839,None,26.621004499989795,None,26.621004499989795,None,26.621004499989795,None,,,,,,,,,,,,,,,,,,,,,,,002,001,B,2022_Mar_07_2107,270300_Mental_Rotation,2021.2.3,143.21066862017952,
10,0,10,0,,,,,,,,,,,26.677727599992068,None,0.0019251399935455993,1.0019251399935456,-250,250,Stimuli_2d/correct12.png,Stimuli_2d/wrong12.png,Stimuli_2d/target12.png,-0.2037037,-0.08611111,1,0,0,0.09773959999438375,img_correct,[-250. -139.],0.003807839995715767,None,27.682744699995965,None,27.682744699995965,None,27.682744699995965,None,,,,,,,,,,,,,,,,,,,,,,,002,001,B,2022_Mar_07_2107,270300_Mental_Rotation,2021.2.3,143.21066862017952,
11,0,11,0,,,,,,,,,,,27.789724999995087,None,0.002763180003967136,1.0027631800039671,-250,250,Stimuli_2d/correct13.png,Stimuli_2d/wrong13.png,Stimuli_2d/target13.png,-0.2037037,-0.085185185,1,0,0,0.0821836999966763,img_correct,[-250. -139.],0.003923440017388202,None,28.79366559999471,None,28.79366559999471,None,28.79366559999471,None,,,,,,,,,,,,,,,,,,,,,,,002,001,B,2022_Mar_07_2107,270300_Mental_Rotation,2021.2.3,143.21066862017952,
12,0,12,0,,,,,,,,,,,28.87831189999997,None,0.0020652399834943935,1.0020652399834944,250,-250,Stimuli_2d/correct5.png,Stimuli_2d/wrong5.png,Stimuli_2d/target5.png,-0.20462963,-0.085185185,1,0,0,0.37895329999446403,img_wrong,[-250. -139.],0.003974339997512288,None,29.879870499993558,None,29.879870499993558,None,29.879870499993558,None,,,,,,,,,,,,,,,,,,,,,,,002,001,B,2022_Mar_07_2107,270300_Mental_Rotation,2021.2.3,143.21066862017952,
13,0,13,0,,,,,,,,,,,30.262302699993597,None,0.00029113999335095286,1.000291139993351,-250,250,Stimuli_2d/correct14.png,Stimuli_2d/wrong14.png,Stimuli_2d/target14.png,-0.20462963,-0.085185185,1,0,0,0.22263489999750163,img_correct,[-250. -139.],0.003708439995534718,None,31.263362199999392,None,31.263362199999392,None,31.263362199999392,None,,,,,,,,,,,,,,,,,,,,,,,002,001,B,2022_Mar_07_2107,270300_Mental_Rotation,2021.2.3,143.21066862017952,
14,0,14,0,,,,,,,,,,,31.49003439999069,None,0.0016700400010449812,1.001670040001045,250,-250,Stimuli_2d/correct7.png,Stimuli_2d/wrong7.png,Stimuli_2d/target7.png,-0.20462963,-0.085185185,1,0,0,0.07141229999251664,img_wrong,[-250. -139.],0.0037878400034969673,None,32.49103099999775,None,32.49103099999775,None,32.49103099999775,None,,,,,,,,,,,,,,,,,,,,,,,002,001,B,2022_Mar_07_2107,270300_Mental_Rotation,2021.2.3,143.21066862017952,
,,,,,,,,,,,,,,,,,,,,,,,,,,,,,,,,,,,,,,,32.56656439999642,None,space,0.7630506999994395,32.56656439999642,None,,,,,,,,,,,,,,,,,002,001,B,2022_Mar_07_2107,270300_Mental_Rotation,2021.2.3,143.21066862017952,
,,,,0,0,0,0,,,,,,,,,,,,,,,,,,,,,,,,,,,,,,,,,,,,,,33.35048929999175,None,0.0025643799890531227,1.0025643799890531,1,Stimuli_3D\hard\25_0.jpg,0,same,34.35121189999336,None,up,0.3312439000001177,34.35121189999336,None,None,None,002,001,B,2022_Mar_07_2107,270300_Mental_Rotation,2021.2.3,143.21066862017952,
,,,,1,0,1,0,,,,,,,,,,,,,,,,,,,,,,,,,,,,,,,,,,,,,,34.70514869999897,None,0.005459819993120618,1.0054598199931206,1,Stimuli_3D\hard\25_0_R.jpg,0,diff,35.70850799999607,None,down,0.18288390000816435,35.70850799999607,None,None,None,002,001,B,2022_Mar_07_2107,270300_Mental_Rotation,2021.2.3,143.21066862017952,
,,,,2,0,2,0,,,,,,,,,,,,,,,,,,,,,,,,,,,,,,,,,,,,,,35.91474699998798,None,0.006108519999543205,1.0061085199995432,1,Stimuli_3D\hard\25_50.jpg,50,same,36.918283499995596,None,up,0.17310210000141524,36.918283499995596,None,None,None,002,001,B,2022_Mar_07_2107,270300_Mental_Rotation,2021.2.3,143.21066862017952,
,,,,3,0,3,0,,,,,,,,,,,,,,,,,,,,,,,,,,,,,,,,,,,,,,37.10842679999769,None,3.277999348938465e-05,1.0000327799934894,1,Stimuli_3D\hard\25_50_R.jpg,50,diff,38.115350399995805,None,down,0.15169660000537988,38.115350399995805,None,None,None,002,001,B,2022_Mar_07_2107,270300_Mental_Rotation,2021.2.3,143.21066862017952,
,,,,4,0,4,0,,,,,,,,,,,,,,,,,,,,,,,,,,,,,,,,,,,,,,38.29976209999586,None,0.001155660007498227,1.0011556600074982,1,Stimuli_3D\hard\25_100.jpg,100,same,39.302547200000845,None,up,0.5142233000078704,39.302547200000845,None,None,None,002,001,B,2022_Mar_07_2107,270300_Mental_Rotation,2021.2.3,143.21066862017952,
,,,,5,0,5,0,,,,,,,,,,,,,,,,,,,,,,,,,,,,,,,,,,,,,,39.84784309999668,None,0.0051447599835228175,1.0051447599835228,1,Stimuli_3D\hard\25_100_R.jpg,100,diff,40.85639109999465,None,down,0.19806290000269655,40.85639109999465,None,None,None,002,001,B,2022_Mar_07_2107,270300_Mental_Rotation,2021.2.3,143.21066862017952,
,,,,6,0,6,0,,,,,,,,,,,,,,,,,,,,,,,,,,,,,,,,,,,,,,41.08885999998893,None,0.001469159993575886,1.0014691599935759,1,Stimuli_3D\hard\25_150.jpg,150,same,42.09304969999357,None,up,0.13671950000571087,42.09304969999357,None,None,None,002,001,B,2022_Mar_07_2107,270300_Mental_Rotation,2021.2.3,143.21066862017952,
,,,,7,0,7,0,,,,,,,,,,,,,,,,,,,,,,,,,,,,,,,,,,,,,,42.268618599991896,None,0.004124499988392927,1.004124499988393,1,Stimuli_3D\hard\25_150_R.jpg,150,diff,43.27155429999402,None,down,0.15805830000317656,43.27155429999402,None,None,None,002,001,B,2022_Mar_07_2107,270300_Mental_Rotation,2021.2.3,143.21066862017952,
,,,,8,0,8,0,,,,,,,,,,,,,,,,,,,,,,,,,,,,,,,,,,,,,,43.455807899998035,None,0.0010162200196646154,1.0010162200196646,1,Stimuli_3D\hard\26_0.jpg,0,same,44.46062629998778,None,up,0.10586540000804234,44.46062629998778,None,None,None,002,001,B,2022_Mar_07_2107,270300_Mental_Rotation,2021.2.3,143.21066862017952,
,,,,9,0,9,0,,,,,,,,,,,,,,,,,,,,,,,,,,,,,,,,,,,,,,44.586649599994416,None,0.0064748199947644025,1.0064748199947644,1,Stimuli_3D\hard\26_0_R.jpg,0,diff,45.59240129998943,None,down,0.1256500000017695,45.59240129998943,None,45.77571439999156,None,002,001,B,2022_Mar_07_2107,270300_Mental_Rotation,2021.2.3,143.21066862017952,
,,,,10,0,10,0,,,,,,,,,,,,,,,,,,,,,,,,,,,,,,,,,,,,,,48.779268499987666,None,1.523998798802495e-05,1.000015239987988,1,Stimuli_3D\hard\26_50.jpg,50,same,49.78542989998823,None,up,0.19430440000724047,49.78542989998823,None,None,None,002,001,B,2022_Mar_07_2107,270300_Mental_Rotation,2021.2.3,143.21066862017952,
,,,,11,0,11,0,,,,,,,,,,,,,,,,,,,,,,,,,,,,,,,,,,,,,,50.02083139999013,None,0.0015373000060208142,1.0015373000060208,1,Stimuli_3D\hard\26_50_R.jpg,50,diff,51.02446279999276,None,down,0.15454780000436585,51.02446279999276,None,None,None,002,001,B,2022_Mar_07_2107,270300_Mental_Rotation,2021.2.3,143.21066862017952,
,,,,12,0,12,0,,,,,,,,,,,,,,,,,,,,,,,,,,,,,,,,,,,,,,51.196744999993825,None,0.006291420009802096,1.006291420009802,1,Stimuli_3D\hard\26_100.jpg,100,same,52.19953459998942,None,up,0.13054279999050777,52.19953459998942,None,None,None,002,001,B,2022_Mar_07_2107,270300_Mental_Rotation,2021.2.3,143.21066862017952,
,,,,13,0,13,0,,,,,,,,,,,,,,,,,,,,,,,,,,,,,,,,,,,,,,52.3652071999968,None,0.0005755599995609373,1.000575559999561,1,Stimuli_3D\hard\26_100_R.jpg,100,diff,53.37519039999461,None,down,0.10466860000451561,53.37519039999461,None,None,None,002,001,B,2022_Mar_07_2107,270300_Mental_Rotation,2021.2.3,143.21066862017952,
,,,,14,0,14,0,,,,,,,,,,,,,,,,,,,,,,,,,,,,,,,,,,,,,,53.49803759998758,None,0.006301620000158437,1.0063016200001584,1,Stimuli_3D\hard\26_150.jpg,150,same,54.5017560999986,None,up,0.12803010000789072,54.5017560999986,None,None,None,002,001,B,2022_Mar_07_2107,270300_Mental_Rotation,2021.2.3,143.21066862017952,
,,,,15,0,15,0,,,,,,,,,,,,,,,,,,,,,,,,,,,,,,,,,,,,,,54.66933479999716,None,0.002778599999146536,1.0027785999991465,1,Stimuli_3D\hard\26_150_R.jpg,150,diff,55.67324499999813,None,down,0.030887500004610047,55.67324499999813,None,None,None,002,001,B,2022_Mar_07_2107,270300_Mental_Rotation,2021.2.3,143.21066862017952,
,,,,16,0,16,0,,,,,,,,,,,,,,,,,,,,,,,,,,,,,,,,,,,,,,55.72560769999109,None,0.006149820008431561,1.0061498200084316,1,Stimuli_3D\hard\27_0.jpg,0,same,56.73083479999332,None,up,0.07396830001380295,56.73083479999332,None,None,None,002,001,B,2022_Mar_07_2107,270300_Mental_Rotation,2021.2.3,143.21066862017952,
,,,,17,0,17,0,,,,,,,,,,,,,,,,,,,,,,,,,,,,,,,,,,,,,,56.84099169999536,None,0.0029543999989982694,1.0029543999989983,1,Stimuli_3D\hard\27_0_R.jpg,0,diff,57.845235199987656,None,down,0.03460530001029838,57.845235199987656,None,None,None,002,001,B,2022_Mar_07_2107,270300_Mental_Rotation,2021.2.3,143.21066862017952,
,,,,18,0,18,0,,,,,,,,,,,,,,,,,,,,,,,,,,,,,,,,,,,,,,57.91631459999189,None,0.006071099996916018,1.006071099996916,1,Stimuli_3D\hard\27_50.jpg,50,same,58.918961699993815,None,up,0.12250009999843314,58.918961699993815,None,None,None,002,001,B,2022_Mar_07_2107,270300_Mental_Rotation,2021.2.3,143.21066862017952,
,,,,19,0,19,0,,,,,,,,,,,,,,,,,,,,,,,,,,,,,,,,,,,,,,59.065779600001406,None,0.004138119998970069,1.00413811999897,1,Stimuli_3D\hard\27_50_R.jpg,50,diff,60.06884870000067,None,down,0.11121230000571813,60.06884870000067,None,60.21973499999149,None,002,001,B,2022_Mar_07_2107,270300_Mental_Rotation,2021.2.3,143.21066862017952,
,,,,20,0,20,0,,,,,,,,,,,,,,,,,,,,,,,,,,,,,,,,,,,,,,63.229413599998225,None,2.8739988920278847e-05,1.0000287399889203,1,Stimuli_3D\hard\27_100.jpg,100,same,64.23325989999285,None,up,0.25928110000677407,64.23325989999285,None,None,None,002,001,B,2022_Mar_07_2107,270300_Mental_Rotation,2021.2.3,143.21066862017952,
,,,,21,0,21,0,,,,,,,,,,,,,,,,,,,,,,,,,,,,,,,,,,,,,,64.52614180000091,None,0.005096299995784648,1.0050962999957846,1,Stimuli_3D\hard\27_100_R.jpg,100,diff,65.53006369998911,None,down,0.11176060000434518,65.53006369998911,None,None,None,002,001,B,2022_Mar_07_2107,270300_Mental_Rotation,2021.2.3,143.21066862017952,
,,,,22,0,22,0,,,,,,,,,,,,,,,,,,,,,,,,,,,,,,,,,,,,,,65.67292289999023,None,0.0021367600129451603,1.0021367600129452,1,Stimuli_3D\hard\27_150.jpg,150,same,66.67583059999743,None,up,0.07829340000171214,66.67583059999743,None,None,None,002,001,B,2022_Mar_07_2107,270300_Mental_Rotation,2021.2.3,143.21066862017952,
,,,,23,0,23,0,,,,,,,,,,,,,,,,,,,,,,,,,,,,,,,,,,,,,,66.77690159999474,None,0.006599019994609989,1.00659901999461,1,Stimuli_3D\hard\27_150_R.jpg,150,diff,67.78195089999645,None,down,0.10936669999500737,67.78195089999645,None,None,None,002,001,B,2022_Mar_07_2107,270300_Mental_Rotation,2021.2.3,143.21066862017952,
,,,,24,0,24,0,,,,,,,,,,,,,,,,,,,,,,,,,,,,,,,,,,,,,,67.9132205999922,None,0.0022847200016258284,1.0022847200016258,1,Stimuli_3D\hard\28_0.jpg,0,same,68.91904019999492,None,up,0.0974189000116894,68.91904019999492,None,None,None,002,001,B,2022_Mar_07_2107,270300_Mental_Rotation,2021.2.3,143.21066862017952,
,,,,25,0,25,0,,,,,,,,,,,,,,,,,,,,,,,,,,,,,,,,,,,,,,69.03343089998816,None,0.006913820005138405,1.0069138200051384,1,Stimuli_3D\hard\28_0_R.jpg,0,diff,70.03757179999957,None,down,0.09156709999660961,70.03757179999957,None,None,None,002,001,B,2022_Mar_07_2107,270300_Mental_Rotation,2021.2.3,143.21066862017952,
,,,,26,0,26,0,,,,,,,,,,,,,,,,,,,,,,,,,,,,,,,,,,,,,,70.15820619999431,None,0.0008835199987515807,1.0008835199987516,1,Stimuli_3D\hard\28_50.jpg,50,same,71.16169149999041,None,up,0.3303128999978071,71.16169149999041,None,None,None,002,001,B,2022_Mar_07_2107,270300_Mental_Rotation,2021.2.3,143.21066862017952,
,,,,27,0,27,0,,,,,,,,,,,,,,,,,,,,,,,,,,,,,,,,,,,,,,71.5232537999982,None,0.004751959990244359,1.0047519599902444,1,Stimuli_3D\hard\28_50_R.jpg,50,diff,72.53131900000153,None,down,0.010184300001128577,72.53131900000153,None,None,None,002,001,B,2022_Mar_07_2107,270300_Mental_Rotation,2021.2.3,143.21066862017952,
,,,,28,0,28,0,,,,,,,,,,,,,,,,,,,,,,,,,,,,,,,,,,,,,,72.56528849998722,None,0.004573020007228479,1.0045730200072285,1,Stimuli_3D\hard\28_100.jpg,100,same,73.56969689999823,None,up,0.1724776000046404,73.56969689999823,None,None,None,002,001,B,2022_Mar_07_2107,270300_Mental_Rotation,2021.2.3,143.21066862017952,
,,,,29,0,29,0,,,,,,,,,,,,,,,,,,,,,,,,,,,,,,,,,,,,,,73.78013980000105,None,0.006549099998665042,1.006549099998665,1,Stimuli_3D\hard\28_100_R.jpg,100,diff,74.78280979998817,None,down,0.17174740000336897,74.78280979998817,None,74.98860430000059,None,002,001,B,2022_Mar_07_2107,270300_Mental_Rotation,2021.2.3,143.21066862017952,
,,,,30,0,30,0,,,,,,,,,,,,,,,,,,,,,,,,,,,,,,,,,,,,,,77.9955415000004,None,0.0015286400157492608,1.0015286400157493,1,Stimuli_3D\hard\28_150.jpg,150,same,78.99747189998743,None,up,0.457228799990844,78.99747189998743,None,None,None,002,001,B,2022_Mar_07_2107,270300_Mental_Rotation,2021.2.3,143.21066862017952,
,,,,31,0,31,0,,,,,,,,,,,,,,,,,,,,,,,,,,,,,,,,,,,,,,79.47765149999759,None,0.005982520000543445,1.0059825200005434,1,Stimuli_3D\hard\28_150_R.jpg,150,diff,80.48263009999937,None,down,0.28407579999475274,80.48263009999937,None,None,None,002,001,B,2022_Mar_07_2107,270300_Mental_Rotation,2021.2.3,143.21066862017952,
,,,,32,0,32,0,,,,,,,,,,,,,,,,,,,,,,,,,,,,,,,,,,,,,,80.78896969999187,None,0.006848119999631308,1.0068481199996313,1,Stimuli_3D\hard\29_0.jpg,0,same,81.79152780000004,None,up,0.10112330000265501,81.79152780000004,None,None,None,002,001,B,2022_Mar_07_2107,270300_Mental_Rotation,2021.2.3,143.21066862017952,
,,,,33,0,33,0,,,,,,,,,,,,,,,,,,,,,,,,,,,,,,,,,,,,,,81.91528629999084,None,0.0005999800050631166,1.0005999800050631,1,Stimuli_3D\hard\29_0_R.jpg,0,diff,82.91898349999974,None,down,0.2099515000008978,82.91898349999974,None,None,None,002,001,B,2022_Mar_07_2107,270300_Mental_Rotation,2021.2.3,143.21066862017952,
,,,,34,0,34,0,,,,,,,,,,,,,,,,,,,,,,,,,,,,,,,,,,,,,,83.14970959999482,None,0.006931719995918684,1.0069317199959187,1,Stimuli_3D\hard\29_50.jpg,50,same,84.15287379999063,None,up,0.20110329998715315,84.15287379999063,None,None,None,002,001,B,2022_Mar_07_2107,270300_Mental_Rotation,2021.2.3,143.21066862017952,
,,,,35,0,35,0,,,,,,,,,,,,,,,,,,,,,,,,,,,,,,,,,,,,,,84.3720142999955,None,0.006400619997293688,1.0064006199972937,1,Stimuli_3D\hard\29_50_R.jpg,50,diff,85.37771459999203,None,down,0.2638552999997046,85.37771459999203,None,None,None,002,001,B,2022_Mar_07_2107,270300_Mental_Rotation,2021.2.3,143.21066862017952,
,,,,36,0,36,0,,,,,,,,,,,,,,,,,,,,,,,,,,,,,,,,,,,,,,85.66336079999746,None,0.006597019993932918,1.006597019993933,1,Stimuli_3D\hard\29_100.jpg,100,same,86.66714769999089,None,up,0.2493887999880826,86.66714769999089,None,None,None,002,001,B,2022_Mar_07_2107,270300_Mental_Rotation,2021.2.3,143.21066862017952,
,,,,37,0,37,0,,,,,,,,,,,,,,,,,,,,,,,,,,,,,,,,,,,,,,86.93513209999946,None,0.005953219995717518,1.0059532199957175,1,Stimuli_3D\hard\29_100_R.jpg,100,diff,87.93901279999409,None,down,0.15303330001188442,87.93901279999409,None,None,None,002,001,B,2022_Mar_07_2107,270300_Mental_Rotation,2021.2.3,143.21066862017952,
,,,,38,0,38,0,,,,,,,,,,,,,,,,,,,,,,,,,,,,,,,,,,,,,,88.12273119999736,None,0.003957360007916577,1.0039573600079166,1,Stimuli_3D\hard\29_150.jpg,150,same,89.12621619999118,None,up,0.17857579998963047,89.12621619999118,None,None,None,002,001,B,2022_Mar_07_2107,270300_Mental_Rotation,2021.2.3,143.21066862017952,
,,,,39,0,39,0,,,,,,,,,,,,,,,,,,,,,,,,,,,,,,,,,,,,,,89.34942319999391,None,0.006163440004456788,1.0061634400044568,1,Stimuli_3D\hard\29_150_R.jpg,150,diff,90.35240889999841,None,down,0.6899698000052013,90.35240889999841,None,91.08116819999123,None,002,001,B,2022_Mar_07_2107,270300_Mental_Rotation,2021.2.3,143.21066862017952,
,,,,40,0,40,0,,,,,,,,,,,,,,,,,,,,,,,,,,,,,,,,,,,,,,94.08537729999807,None,0.0068444799981079996,1.006844479998108,1,Stimuli_3D\hard\30_0.jpg,0,same,95.09423309999693,None,up,0.5978000000031898,95.09423309999693,None,None,None,002,001,B,2022_Mar_07_2107,270300_Mental_Rotation,2021.2.3,143.21066862017952,
,,,,41,0,41,0,,,,,,,,,,,,,,,,,,,,,,,,,,,,,,,,,,,,,,95.72909159999108,None,0.0028331000066827983,1.0028331000066828,1,Stimuli_3D\hard\30_0_R.jpg,0,diff,96.73279389999516,None,down,0.10906950000207871,96.73279389999516,None,None,None,002,001,B,2022_Mar_07_2107,270300_Mental_Rotation,2021.2.3,143.21066862017952,
,,,,42,0,42,0,,,,,,,,,,,,,,,,,,,,,,,,,,,,,,,,,,,,,,96.86955899999884,None,0.0007235200027935207,1.0007235200027935,1,Stimuli_3D\hard\30_50.jpg,50,same,97.87163439999858,None,up,0.23276509999413975,97.87163439999858,None,None,None,002,001,B,2022_Mar_07_2107,270300_Mental_Rotation,2021.2.3,143.21066862017952,
,,,,43,0,43,0,,,,,,,,,,,,,,,,,,,,,,,,,,,,,,,,,,,,,,98.13724430000002,None,0.00463186000706628,1.0046318600070663,1,Stimuli_3D\hard\30_50_R.jpg,50,diff,99.13949859999411,None,down,0.2769407999876421,99.13949859999411,None,None,None,002,001,B,2022_Mar_07_2107,270300_Mental_Rotation,2021.2.3,143.21066862017952,
,,,,44,0,44,0,,,,,,,,,,,,,,,,,,,,,,,,,,,,,,,,,,,,,,99.43885579999187,None,0.006599419997655787,1.0065994199976558,1,Stimuli_3D\hard\30_100.jpg,100,same,100.44398830000137,None,up,0.1849616999970749,100.44398830000137,None,None,None,002,001,B,2022_Mar_07_2107,270300_Mental_Rotation,2021.2.3,143.21066862017952,
,,,,45,0,45,0,,,,,,,,,,,,,,,,,,,,,,,,,,,,,,,,,,,,,,100.6486475999991,None,0.005654819993651472,1.0056548199936515,1,Stimuli_3D\hard\30_100_R.jpg,100,diff,101.65274469999713,None,down,0.11430670000845566,101.65274469999713,None,None,None,002,001,B,2022_Mar_07_2107,270300_Mental_Rotation,2021.2.3,143.21066862017952,
,,,,46,0,46,0,,,,,,,,,,,,,,,,,,,,,,,,,,,,,,,,,,,,,,101.80233739998948,None,0.0069029000151203945,1.0069029000151204,1,Stimuli_3D\hard\30_150.jpg,150,same,102.80860579998989,None,up,0.05866969999624416,102.80860579998989,None,None,None,002,001,B,2022_Mar_07_2107,270300_Mental_Rotation,2021.2.3,143.21066862017952,
,,,,47,0,47,0,,,,,,,,,,,,,,,,,,,,,,,,,,,,,,,,,,,,,,102.90172899999015,None,0.004951799986883998,1.004951799986884,1,Stimuli_3D\hard\30_150_R.jpg,150,diff,103.90508499999123,None,down,0.16135170000779908,103.90508499999123,None,None,None,002,001,B,2022_Mar_07_2107,270300_Mental_Rotation,2021.2.3,143.21066862017952,
,,,,48,0,48,0,,,,,,,,,,,,,,,,,,,,,,,,,,,,,,,,,,,,,,104.08688170000096,None,0.00021067999477963895,1.0002106799947796,1,Stimuli_3D\hard\31_0.jpg,0,same,105.0908774999989,None,up,0.1891470999980811,105.0908774999989,None,None,None,002,001,B,2022_Mar_07_2107,270300_Mental_Rotation,2021.2.3,143.21066862017952,
,,,,49,0,49,0,,,,,,,,,,,,,,,,,,,,,,,,,,,,,,,,,,,,,,105.31623379999655,None,0.0022131599980639294,1.002213159998064,1,Stimuli_3D\hard\31_0_R.jpg,0,diff,106.32039039999654,None,down,0.24621789999946486,106.32039039999654,None,106.58838289999403,None,002,001,B,2022_Mar_07_2107,270300_Mental_Rotation,2021.2.3,143.21066862017952,
,,,,50,0,50,0,,,,,,,,,,,,,,,,,,,,,,,,,,,,,,,,,,,,,,109.5968400999991,None,0.006741880002664402,1.0067418800026644,1,Stimuli_3D\hard\31_50.jpg,50,same,110.60010539999348,None,up,0.09205150000343565,110.60010539999348,None,None,None,002,001,B,2022_Mar_07_2107,270300_Mental_Rotation,2021.2.3,143.21066862017952,
,,,,51,0,51,0,,,,,,,,,,,,,,,,,,,,,,,,,,,,,,,,,,,,,,110.73183929998777,None,0.00614280000445433,1.0061428000044543,1,Stimuli_3D\hard\31_50_R.jpg,50,diff,111.73604489999707,None,down,0.2428042999963509,111.73604489999707,None,None,None,002,001,B,2022_Mar_07_2107,270300_Mental_Rotation,2021.2.3,143.21066862017952,
,,,,52,0,52,0,,,,,,,,,,,,,,,,,,,,,,,,,,,,,,,,,,,,,,111.9992382999917,None,0.006524020005599596,1.0065240200055996,1,Stimuli_3D\hard\31_100.jpg,100,same,113.00423139998748,None,up,0.22703189999447204,113.00423139998748,None,None,None,002,001,B,2022_Mar_07_2107,270300_Mental_Rotation,2021.2.3,143.21066862017952,
,,,,53,0,53,0,,,,,,,,,,,,,,,,,,,,,,,,,,,,,,,,,,,,,,113.26887780000106,None,0.005498700003954582,1.0054987000039546,1,Stimuli_3D\hard\31_100_R.jpg,100,diff,114.272636099995,None,down,0.21980989999428857,114.272636099995,None,None,None,002,001,B,2022_Mar_07_2107,270300_Mental_Rotation,2021.2.3,143.21066862017952,
,,,,54,0,54,0,,,,,,,,,,,,,,,,,,,,,,,,,,,,,,,,,,,,,,114.52831179999339,None,0.00279059998865705,1.002790599988657,1,Stimuli_3D\hard\31_150.jpg,150,same,115.53085149999242,None,up,0.1105455999932019,115.53085149999242,None,None,None,002,001,B,2022_Mar_07_2107,270300_Mental_Rotation,2021.2.3,143.21066862017952,
,,,,55,0,55,0,,,,,,,,,,,,,,,,,,,,,,,,,,,,,,,,,,,,,,115.66489439998986,None,0.00016357999993488193,1.0001635799999349,1,Stimuli_3D\hard\31_150_R.jpg,150,diff,116.66828079998959,None,down,0.12383309999131598,116.66828079998959,None,None,None,002,001,B,2022_Mar_07_2107,270300_Mental_Rotation,2021.2.3,143.21066862017952,
,,,,56,0,56,0,,,,,,,,,,,,,,,,,,,,,,,,,,,,,,,,,,,,,,116.8164584999904,None,0.0056568199943285435,1.0056568199943285,1,Stimuli_3D\hard\32_0.jpg,0,same,117.81983670000045,None,up,0.18482399999629706,117.81983670000045,None,None,None,002,001,B,2022_Mar_07_2107,270300_Mental_Rotation,2021.2.3,143.21066862017952,
,,,,57,0,57,0,,,,,,,,,,,,,,,,,,,,,,,,,,,,,,,,,,,,,,118.03876099998888,None,0.006412599992472678,1.0064125999924727,1,Stimuli_3D\hard\32_0_R.jpg,0,diff,119.04802979998931,None,down,0.08110690000467002,119.04802979998931,None,None,None,002,001,B,2022_Mar_07_2107,270300_Mental_Rotation,2021.2.3,143.21066862017952,
,,,,58,0,58,0,,,,,,,,,,,,,,,,,,,,,,,,,,,,,,,,,,,,,,119.15080809999199,None,0.0063868199940770864,1.006386819994077,1,Stimuli_3D\hard\32_50.jpg,50,same,120.15663179999683,None,up,0.21074640000006184,120.15663179999683,None,None,None,002,001,B,2022_Mar_07_2107,270300_Mental_Rotation,2021.2.3,143.21066862017952,
,,,,59,0,59,0,,,,,,,,,,,,,,,,,,,,,,,,,,,,,,,,,,,,,,120.40198929999315,None,0.0006202599906828254,1.0006202599906828,1,Stimuli_3D\hard\32_50_R.jpg,50,diff,121.40644039999461,None,down,0.22258200000214856,121.40644039999461,None,121.65330989999347,None,002,001,B,2022_Mar_07_2107,270300_Mental_Rotation,2021.2.3,143.21066862017952,
,,,,60,0,60,0,,,,,,,,,,,,,,,,,,,,,,,,,,,,,,,,,,,,,,124.66256319999229,None,0.00044223999429959804,1.0004422399942996,1,Stimuli_3D\hard\32_100.jpg,100,same,125.66578260000097,None,up,0.3005671999999322,125.66578260000097,None,None,None,002,001,B,2022_Mar_07_2107,270300_Mental_Rotation,2021.2.3,143.21066862017952,
,,,,61,0,61,0,,,,,,,,,,,,,,,,,,,,,,,,,,,,,,,,,,,,,,125.98973000000115,None,0.006135520001407713,1.0061355200014077,1,Stimuli_3D\hard\32_100_R.jpg,100,diff,126.9979522999929,None,down,0.21922099999210332,126.9979522999929,None,None,None,002,001,B,2022_Mar_07_2107,270300_Mental_Rotation,2021.2.3,143.21066862017952,
,,,,62,0,62,0,,,,,,,,,,,,,,,,,,,,,,,,,,,,,,,,,,,,,,127.25397759999032,None,0.004086100001586601,1.0040861000015866,1,Stimuli_3D\hard\32_150.jpg,150,same,128.25689269999566,None,up,0.5475887000065995,128.25689269999566,None,None,None,002,001,B,2022_Mar_07_2107,270300_Mental_Rotation,2021.2.3,143.21066862017952,
,,,,63,0,63,0,,,,,,,,,,,,,,,,,,,,,,,,,,,,,,,,,,,,,,128.8448170999909,None,0.002326700006960891,1.002326700006961,1,Stimuli_3D\hard\32_150_R.jpg,150,diff,129.8484740999993,None,down,0.181141100008972,129.8484740999993,None,None,None,002,001,B,2022_Mar_07_2107,270300_Mental_Rotation,2021.2.3,143.21066862017952,
,,,,64,0,64,0,,,,,,,,,,,,,,,,,,,,,,,,,,,,,,,,,,,,,,130.05263379999087,None,0.0037200199876679108,1.003720019987668,1,Stimuli_3D\hard\33_0.jpg,0,same,131.05560100000002,None,up,0.21099459999823011,131.05560100000002,None,None,None,002,001,B,2022_Mar_07_2107,270300_Mental_Rotation,2021.2.3,143.21066862017952,
,,,,65,0,65,0,,,,,,,,,,,,,,,,,,,,,,,,,,,,,,,,,,,,,,131.28939939998963,None,0.004447020008228719,1.0044470200082287,1,Stimuli_3D\hard\33_0_R.jpg,0,diff,132.29241869998805,None,down,0.21165369999653194,132.29241869998805,None,None,None,002,001,B,2022_Mar_07_2107,270300_Mental_Rotation,2021.2.3,143.21066862017952,
,,,,66,0,66,0,,,,,,,,,,,,,,,,,,,,,,,,,,,,,,,,,,,,,,132.52359759999672,None,0.006771619999199174,1.0067716199991992,1,Stimuli_3D\hard\33_50.jpg,50,same,133.5265677999996,None,up,0.1655532000004314,133.5265677999996,None,None,None,002,001,B,2022_Mar_07_2107,270300_Mental_Rotation,2021.2.3,143.21066862017952,
,,,,67,0,67,0,,,,,,,,,,,,,,,,,,,,,,,,,,,,,,,,,,,,,,133.72337429999607,None,0.006841700000222772,1.0068417000002228,1,Stimuli_3D\hard\33_50_R.jpg,50,diff,134.72716539999237,None,down,0.17762069999298546,134.72716539999237,None,None,None,002,001,B,2022_Mar_07_2107,270300_Mental_Rotation,2021.2.3,143.21066862017952,
,,,,68,0,68,0,,,,,,,,,,,,,,,,,,,,,,,,,,,,,,,,,,,,,,134.94528719999653,None,0.0050343999901087955,1.0050343999901088,1,Stimuli_3D\hard\33_100.jpg,100,same,135.9483709999913,None,up,0.2203029000083916,135.9483709999913,None,None,None,002,001,B,2022_Mar_07_2107,270300_Mental_Rotation,2021.2.3,143.21066862017952,
,,,,69,0,69,0,,,,,,,,,,,,,,,,,,,,,,,,,,,,,,,,,,,,,,136.19937370000116,None,0.00034171999141108245,1.000341719991411,1,Stimuli_3D\hard\33_100_R.jpg,100,diff,137.2020005999948,None,down,0.06529319999390282,137.2020005999948,None,137.30741119998856,None,002,001,B,2022_Mar_07_2107,270300_Mental_Rotation,2021.2.3,143.21066862017952,
,,,,70,0,70,0,,,,,,,,,,,,,,,,,,,,,,,,,,,,,,,,,,,,,,140.31301639998856,None,0.0002355399919906631,1.0002355399919907,1,Stimuli_3D\hard\33_150.jpg,150,same,141.3165977999888,None,up,0.201709299988579,141.3165977999888,None,None,None,002,001,B,2022_Mar_07_2107,270300_Mental_Rotation,2021.2.3,143.21066862017952,
,,,,71,0,71,0,,,,,,,,,,,,,,,,,,,,,,,,,,,,,,,,,,,,,,141.55826279999746,None,0.00019069999689236283,1.0001906999968924,1,Stimuli_3D\hard\33_150_R.jpg,150,diff,142.56275909999385,None,down,0.24212700000498444,142.56275909999385,None,None,None,002,001,B,2022_Mar_07_2107,270300_Mental_Rotation,2021.2.3,143.21066862017952,
,,,,72,0,72,0,,,,,,,,,,,,,,,,,,,,,,,,,,,,,,,,,,,,,,142.85345729999244,None,0.004949539987137541,1.0049495399871375,1,Stimuli_3D\hard\34_0.jpg,0,same,143.8603468999936,None,up,0.15689639998890925,143.8603468999936,None,None,None,002,001,B,2022_Mar_07_2107,270300_Mental_Rotation,2021.2.3,143.21066862017952,
,,,,73,0,73,0,,,,,,,,,,,,,,,,,,,,,,,,,,,,,,,,,,,,,,144.0568382999918,None,0.003322199991089292,1.0033221999910893,1,Stimuli_3D\hard\34_0_R.jpg,0,diff,145.06081099998846,None,down,0.21876720000000205,145.06081099998846,None,None,None,002,001,B,2022_Mar_07_2107,270300_Mental_Rotation,2021.2.3,143.21066862017952,
,,,,74,0,74,0,,,,,,,,,,,,,,,,,,,,,,,,,,,,,,,,,,,,,,145.3144486999954,None,0.001977459993213415,1.0019774599932134,1,Stimuli_3D\hard\34_50.jpg,50,same,146.31697449999047,None,up,0.15073009999468923,146.31697449999047,None,None,None,002,001,B,2022_Mar_07_2107,270300_Mental_Rotation,2021.2.3,143.21066862017952,
,,,,75,0,75,0,,,,,,,,,,,,,,,,,,,,,,,,,,,,,,,,,,,,,,146.4992643000005,None,0.0002239599998574704,1.0002239599998575,1,Stimuli_3D\hard\34_50_R.jpg,50,diff,147.50166159999208,None,down,0.16481040000508074,147.50166159999208,None,None,None,002,001,B,2022_Mar_07_2107,270300_Mental_Rotation,2021.2.3,143.21066862017952,
,,,,76,0,76,0,,,,,,,,,,,,,,,,,,,,,,,,,,,,,,,,,,,,,,147.68792409999878,None,0.006487520004156977,1.006487520004157,1,Stimuli_3D\hard\34_100.jpg,100,same,148.69284569998854,None,up,0.22439889999805018,148.69284569998854,None,None,None,002,001,B,2022_Mar_07_2107,270300_Mental_Rotation,2021.2.3,143.21066862017952,
,,,,77,0,77,0,,,,,,,,,,,,,,,,,,,,,,,,,,,,,,,,,,,,,,148.95217109999794,None,0.000539460001164116,1.0005394600011641,1,Stimuli_3D\hard\34_100_R.jpg,100,diff,149.95610399999714,None,down,0.07304379998822697,149.95610399999714,None,None,None,002,001,B,2022_Mar_07_2107,270300_Mental_Rotation,2021.2.3,143.21066862017952,
,,,,78,0,78,0,,,,,,,,,,,,,,,,,,,,,,,,,,,,,,,,,,,,,,150.05923689999327,None,0.004774459986947477,1.0047744599869475,1,Stimuli_3D\hard\34_150.jpg,150,same,151.06761139999435,None,up,0.18637399999715853,151.06761139999435,None,None,None,002,001,B,2022_Mar_07_2107,270300_Mental_Rotation,2021.2.3,143.21066862017952,
,,,,79,0,79,0,,,,,,,,,,,,,,,,,,,,,,,,,,,,,,,,,,,,,,151.2818785999989,None,0.0021784199925605208,1.0021784199925605,1,Stimuli_3D\hard\34_150_R.jpg,150,diff,152.28472959999635,None,down,0.18231380000361241,152.28472959999635,None,152.50289749998774,None,002,001,B,2022_Mar_07_2107,270300_Mental_Rotation,2021.2.3,143.21066862017952,
,,,,80,0,80,0,,,,,,,,,,,,,,,,,,,,,,,,,,,,,,,,,,,,,,155.51161819999106,None,0.0005029400053899735,1.00050294000539,1,Stimuli_3D\hard\35_0.jpg,0,same,156.5153707999998,None,up,0.22690629999851808,156.5153707999998,None,None,None,002,001,B,2022_Mar_07_2107,270300_Mental_Rotation,2021.2.3,143.21066862017952,
,,,,81,0,81,0,,,,,,,,,,,,,,,,,,,,,,,,,,,,,,,,,,,,,,156.78799929999514,None,0.0051206399948569015,1.005120639994857,1,Stimuli_3D\hard\35_0_R.jpg,0,diff,157.79553189998842,None,down,0.25837300000421237,157.79553189998842,None,None,None,002,001,B,2022_Mar_07_2107,270300_Mental_Rotation,2021.2.3,143.21066862017952,
,,,,82,0,82,0,,,,,,,,,,,,,,,,,,,,,,,,,,,,,,,,,,,,,,158.07436079999025,None,0.0003937799920095131,1.0003937799920095,1,Stimuli_3D\hard\35_50.jpg,50,same,159.07820229999197,None,up,0.21359230000234675,159.07820229999197,None,None,None,002,001,B,2022_Mar_07_2107,270300_Mental_Rotation,2021.2.3,143.21066862017952,
,,,,83,0,83,0,,,,,,,,,,,,,,,,,,,,,,,,,,,,,,,,,,,,,,159.3309455999988,None,0.001658199995290488,1.0016581999952905,1,Stimuli_3D\hard\35_50_R.jpg,50,diff,160.33395869999367,None,down,0.30830930000229273,160.33395869999367,None,None,None,002,001,B,2022_Mar_07_2107,270300_Mental_Rotation,2021.2.3,143.21066862017952,
,,,,84,0,84,0,,,,,,,,,,,,,,,,,,,,,,,,,,,,,,,,,,,,,,160.6819458999962,None,0.004096400007256307,1.0040964000072563,1,Stimuli_3D\hard\35_100.jpg,100,same,161.68452409999736,None,up,0.24530340000637807,161.68452409999736,None,None,None,002,001,B,2022_Mar_07_2107,270300_Mental_Rotation,2021.2.3,143.21066862017952,
,,,,85,0,85,0,,,,,,,,,,,,,,,,,,,,,,,,,,,,,,,,,,,,,,161.97256489998836,None,0.0002562000008765608,1.0002562000008766,1,Stimuli_3D\hard\35_100_R.jpg,100,diff,162.97653629998968,None,down,0.20241689999238588,162.97653629998968,None,None,None,002,001,B,2022_Mar_07_2107,270300_Mental_Rotation,2021.2.3,143.21066862017952,
,,,,86,0,86,0,,,,,,,,,,,,,,,,,,,,,,,,,,,,,,,,,,,,,,163.19856539998727,None,0.00022237999655772,1.0002223799965577,1,Stimuli_3D\hard\35_150.jpg,150,same,164.2019009999931,None,up,0.22743689999333583,164.2019009999931,None,None,None,002,001,B,2022_Mar_07_2107,270300_Mental_Rotation,2021.2.3,143.21066862017952,
,,,,87,0,87,0,,,,,,,,,,,,,,,,,,,,,,,,,,,,,,,,,,,,,,164.46529219999502,None,0.005305900005623698,1.0053059000056237,1,Stimuli_3D\hard\35_150_R.jpg,150,diff,165.4679216999939,None,down,0.21118109999224544,165.4679216999939,None,None,None,002,001,B,2022_Mar_07_2107,270300_Mental_Rotation,2021.2.3,143.21066862017952,
,,,,88,0,88,0,,,,,,,,,,,,,,,,,,,,,,,,,,,,,,,,,,,,,,165.70091099999263,None,0.005630420011584647,1.0056304200115846,1,Stimuli_3D\hard\36_0.jpg,0,same,166.70487859999412,None,up,0.11220399999001529,166.70487859999412,None,None,None,002,001,B,2022_Mar_07_2107,270300_Mental_Rotation,2021.2.3,143.21066862017952,
,,,,89,0,89,0,,,,,,,,,,,,,,,,,,,,,,,,,,,,,,,,,,,,,,166.85123849999218,None,0.002093459988827817,1.0020934599888278,1,Stimuli_3D\hard\36_0_R.jpg,0,diff,167.8579105999961,None,down,0.20873920001031365,167.8579105999961,None,168.09015829999407,None,002,001,B,2022_Mar_07_2107,270300_Mental_Rotation,2021.2.3,143.21066862017952,
,,,,90,0,90,0,,,,,,,,,,,,,,,,,,,,,,,,,,,,,,,,,,,,,,171.09933119999187,None,0.0006807400059187785,1.0006807400059188,1,Stimuli_3D\hard\36_50.jpg,50,same,172.10302270000102,None,up,0.23855599999660626,172.10302270000102,None,None,None,002,001,B,2022_Mar_07_2107,270300_Mental_Rotation,2021.2.3,143.21066862017952,
,,,,91,0,91,0,,,,,,,,,,,,,,,,,,,,,,,,,,,,,,,,,,,,,,172.37469309999142,None,0.004694960007327609,1.0046949600073276,1,Stimuli_3D\hard\36_50_R.jpg,50,diff,173.37860089998867,None,down,0.06337189998885151,173.37860089998867,None,None,None,002,001,B,2022_Mar_07_2107,270300_Mental_Rotation,2021.2.3,143.21066862017952,
,,,,92,0,92,0,,,,,,,,,,,,,,,,,,,,,,,,,,,,,,,,,,,,,,173.47552209999412,None,0.0007564599945908412,1.0007564599945908,1,Stimuli_3D\hard\36_100.jpg,100,same,174.48194449998846,None,up,0.08524029998807237,174.48194449998846,None,None,None,002,001,B,2022_Mar_07_2107,270300_Mental_Rotation,2021.2.3,143.21066862017952,
,,,,93,0,93,0,,,,,,,,,,,,,,,,,,,,,,,,,,,,,,,,,,,,,,174.60909299999184,None,0.004019600004539825,1.0040196000045398,1,Stimuli_3D\hard\36_100_R.jpg,100,diff,175.61177679999673,None,down,0.0046876000124029815,175.61177679999673,None,None,None,002,001,B,2022_Mar_07_2107,270300_Mental_Rotation,2021.2.3,143.21066862017952,
,,,,94,0,94,0,,,,,,,,,,,,,,,,,,,,,,,,,,,,,,,,,,,,,,175.64011319998826,None,0.006060820000129752,1.0060608200001298,1,Stimuli_3D\hard\36_150.jpg,150,same,176.64499570000044,None,up,0.19721349999599624,176.64499570000044,None,None,None,002,001,B,2022_Mar_07_2107,270300_Mental_Rotation,2021.2.3,143.21066862017952,
,,,,95,0,95,0,,,,,,,,,,,,,,,,,,,,,,,,,,,,,,,,,,,,,,176.88590119998844,None,0.0010128000139957294,1.0010128000139957,1,Stimuli_3D\hard\36_150_R.jpg,150,diff,177.89082109999435,None,down,0.05077069999242667,177.89082109999435,None,None,None,002,001,B,2022_Mar_07_2107,270300_Mental_Rotation,2021.2.3,143.21066862017952,
,,,,96,0,96,0,,,,,,,,,,,,,,,,,,,,,,,,,,,,,,,,,,,,,,177.96186820000003,None,0.0058091199898626655,1.0058091199898627,1,Stimuli_3D\hard\37_0.jpg,0,same,178.96550029999344,None,up,0.5384183999995003,178.96550029999344,None,None,None,002,001,B,2022_Mar_07_2107,270300_Mental_Rotation,2021.2.3,143.21066862017952,
,,,,97,0,97,0,,,,,,,,,,,,,,,,,,,,,,,,,,,,,,,,,,,,,,179.52385929999582,None,0.0058063199976459146,1.005806319997646,1,Stimuli_3D\hard\37_0_R.jpg,0,diff,180.52917769999476,None,down,0.012388100003590807,180.52917769999476,None,None,None,002,001,B,2022_Mar_07_2107,270300_Mental_Rotation,2021.2.3,143.21066862017952,
,,,,98,0,98,0,,,,,,,,,,,,,,,,,,,,,,,,,,,,,,,,,,,,,,180.56757649999054,None,0.003170319992932491,1.0031703199929325,1,Stimuli_3D\hard\37_50.jpg,50,same,181.57139659998938,None,up,0.12005559999670368,181.57139659998938,None,None,None,002,001,B,2022_Mar_07_2107,270300_Mental_Rotation,2021.2.3,143.21066862017952,
,,,,99,0,99,0,,,,,,,,,,,,,,,,,,,,,,,,,,,,,,,,,,,,,,181.7095568999939,None,0.0004465799866011366,1.0004465799866011,1,Stimuli_3D\hard\37_50_R.jpg,50,diff,182.71290829998907,None,down,0.16680500000074971,182.71290829998907,None,182.9189239999978,None,002,001,B,2022_Mar_07_2107,270300_Mental_Rotation,2021.2.3,143.21066862017952,
,,,,100,0,100,0,,,,,,,,,,,,,,,,,,,,,,,,,,,,,,,,,,,,,,185.92943879999802,None,0.0016518799966434017,1.0016518799966434,1,Stimuli_3D\hard\37_100.jpg,100,same,186.9333184999996,None,up,0.29602900000463706,186.9333184999996,None,None,None,002,001,B,2022_Mar_07_2107,270300_Mental_Rotation,2021.2.3,143.21066862017952,
,,,,101,0,101,0,,,,,,,,,,,,,,,,,,,,,,,,,,,,,,,,,,,,,,187.26541999999608,None,0.0005649600061587989,1.0005649600061588,1,Stimuli_3D\hard\37_100_R.jpg,100,diff,188.26797969998734,None,down,0.1608574999991106,188.26797969998734,None,None,None,002,001,B,2022_Mar_07_2107,270300_Mental_Rotation,2021.2.3,143.21066862017952,
,,,,102,0,102,0,,,,,,,,,,,,,,,,,,,,,,,,,,,,,,,,,,,,,,188.45173399998748,None,0.006691419999697246,1.0066914199996972,1,Stimuli_3D\hard\37_150.jpg,150,same,189.455810200001,None,up,0.19815660000313073,189.455810200001,None,None,None,002,001,B,2022_Mar_07_2107,270300_Mental_Rotation,2021.2.3,143.21066862017952,
,,,,103,0,103,0,,,,,,,,,,,,,,,,,,,,,,,,,,,,,,,,,,,,,,189.6818857999897,None,0.006544859992573038,1.006544859992573,1,Stimuli_3D\hard\37_150_R.jpg,150,diff,190.6853618999885,None,down,0.7810786000045482,190.6853618999885,None,None,None,002,001,B,2022_Mar_07_2107,270300_Mental_Rotation,2021.2.3,143.21066862017952,
,,,,104,0,104,0,,,,,,,,,,,,,,,,,,,,,,,,,,,,,,,,,,,,,,191.4869272999931,None,0.006503220007289201,1.0065032200072892,1,Stimuli_3D\hard\38_0.jpg,0,same,192.49314149998827,None,up,0.1738465999951586,192.49314149998827,None,None,None,002,001,B,2022_Mar_07_2107,270300_Mental_Rotation,2021.2.3,143.21066862017952,
,,,,105,0,105,0,,,,,,,,,,,,,,,,,,,,,,,,,,,,,,,,,,,,,,192.70467899998766,None,0.0064796999940881506,1.0064796999940882,1,Stimuli_3D\hard\38_0_R.jpg,0,diff,193.70817729999544,None,down,0.17133990000002086,193.70817729999544,None,None,None,002,001,B,2022_Mar_07_2107,270300_Mental_Rotation,2021.2.3,143.21066862017952,
,,,,106,0,106,0,,,,,,,,,,,,,,,,,,,,,,,,,,,,,,,,,,,,,,193.90035070000158,None,0.004136619987548329,1.0041366199875483,1,Stimuli_3D\hard\38_50.jpg,50,same,194.90351059999375,None,up,0.15031280000403058,194.90351059999375,None,None,None,002,001,B,2022_Mar_07_2107,270300_Mental_Rotation,2021.2.3,143.21066862017952,
,,,,107,0,107,0,,,,,,,,,,,,,,,,,,,,,,,,,,,,,,,,,,,,,,195.07501659999252,None,0.0005761799839092419,1.0005761799839092,1,Stimuli_3D\hard\38_50_R.jpg,50,diff,196.07755859999452,None,down,0.202477099999669,196.07755859999452,None,None,None,002,001,B,2022_Mar_07_2107,270300_Mental_Rotation,2021.2.3,143.21066862017952,
,,,,108,0,108,0,,,,,,,,,,,,,,,,,,,,,,,,,,,,,,,,,,,,,,196.31626739999047,None,0.0013863599888281897,1.0013863599888282,1,Stimuli_3D\hard\38_100.jpg,100,same,197.32102019999002,None,up,0.08279699999548029,197.32102019999002,None,None,None,002,001,B,2022_Mar_07_2107,270300_Mental_Rotation,2021.2.3,143.21066862017952,
,,,,109,0,109,0,,,,,,,,,,,,,,,,,,,,,,,,,,,,,,,,,,,,,,197.42684509999526,None,0.0022642599942628294,1.0022642599942628,1,Stimuli_3D\hard\38_100_R.jpg,100,diff,198.4328230999963,None,down,0.1460378000047058,198.4328230999963,None,198.61836439999752,None,002,001,B,2022_Mar_07_2107,270300_Mental_Rotation,2021.2.3,143.21066862017952,
,,,,110,0,110,0,,,,,,,,,,,,,,,,,,,,,,,,,,,,,,,,,,,,,,201.6234470999916,None,0.006887880008434877,1.0068878800084349,1,Stimuli_3D\hard\38_150.jpg,150,same,202.6275362000015,None,up,0.15183450000768062,202.6275362000015,None,None,None,002,001,B,2022_Mar_07_2107,270300_Mental_Rotation,2021.2.3,143.21066862017952,
,,,,111,0,111,0,,,,,,,,,,,,,,,,,,,,,,,,,,,,,,,,,,,,,,202.8147605999984,None,0.00536189999547787,1.0053618999954779,1,Stimuli_3D\hard\38_150_R.jpg,150,diff,203.81845979999343,None,down,0.14794070000061765,203.81845979999343,None,None,None,002,001,B,2022_Mar_07_2107,270300_Mental_Rotation,2021.2.3,143.21066862017952,
,,,,112,0,112,0,,,,,,,,,,,,,,,,,,,,,,,,,,,,,,,,,,,,,,203.9842529000016,None,0.0065489200060255826,1.0065489200060256,1,Stimuli_3D\hard\39_0.jpg,0,same,204.98790449999797,None,up,0.10352100001182407,204.98790449999797,None,None,None,002,001,B,2022_Mar_07_2107,270300_Mental_Rotation,2021.2.3,143.21066862017952,
,,,,113,0,113,0,,,,,,,,,,,,,,,,,,,,,,,,,,,,,,,,,,,,,,205.11019659999874,None,0.005831319998833351,1.0058313199988334,1,Stimuli_3D\hard\39_0_R.jpg,0,diff,206.11305169999832,None,down,0.07864249999693129,206.11305169999832,None,None,None,002,001,B,2022_Mar_07_2107,270300_Mental_Rotation,2021.2.3,143.21066862017952,
,,,,114,0,114,0,,,,,,,,,,,,,,,,,,,,,,,,,,,,,,,,,,,,,,206.22024369999417,None,0.00020012000459246337,1.0002001200045925,1,Stimuli_3D\hard\39_50.jpg,50,same,207.22318619998987,None,up,0.10644420000608079,207.22318619998987,None,None,None,002,001,B,2022_Mar_07_2107,270300_Mental_Rotation,2021.2.3,143.21066862017952,
,,,,115,0,115,0,,,,,,,,,,,,,,,,,,,,,,,,,,,,,,,,,,,,,,207.36509079999814,None,0.005854100003489293,1.0058541000034893,1,Stimuli_3D\hard\39_50_R.jpg,50,diff,208.36768669998855,None,down,0.10035499998775776,208.36768669998855,None,None,None,002,001,B,2022_Mar_07_2107,270300_Mental_Rotation,2021.2.3,143.21066862017952,
,,,,116,0,116,0,,,,,,,,,,,,,,,,,,,,,,,,,,,,,,,,,,,,,,208.4999705999944,None,0.0056096600019373,1.0056096600019373,1,Stimuli_3D\hard\39_100.jpg,100,same,209.50310499999614,None,up,0.08836809999775141,209.50310499999614,None,None,None,002,001,B,2022_Mar_07_2107,270300_Mental_Rotation,2021.2.3,143.21066862017952,
,,,,117,0,117,0,,,,,,,,,,,,,,,,,,,,,,,,,,,,,,,,,,,,,,209.61532549999538,None,0.0011207200004719198,1.001120720000472,1,Stimuli_3D\hard\39_100_R.jpg,100,diff,210.61937039998884,None,down,0.3096342999924673,210.61937039998884,None,None,None,002,001,B,2022_Mar_07_2107,270300_Mental_Rotation,2021.2.3,143.21066862017952,
,,,,118,0,118,0,,,,,,,,,,,,,,,,,,,,,,,,,,,,,,,,,,,,,,210.9489867999946,None,0.005967819990473799,1.0059678199904738,1,Stimuli_3D\hard\39_150.jpg,150,same,211.95215199999802,None,up,0.0892042999912519,211.95215199999802,None,None,None,002,001,B,2022_Mar_07_2107,270300_Mental_Rotation,2021.2.3,143.21066862017952,
,,,,119,0,119,0,,,,,,,,,,,,,,,,,,,,,,,,,,,,,,,,,,,,,,212.05846759999986,None,0.0006808800098951906,1.0006808800098952,1,Stimuli_3D\hard\39_150_R.jpg,150,diff,213.06116479999037,None,down,0.11816630000248551,213.06116479999037,None,213.2107898999966,None,002,001,B,2022_Mar_07_2107,270300_Mental_Rotation,2021.2.3,143.21066862017952,
,,,,120,0,120,0,,,,,,,,,,,,,,,,,,,,,,,,,,,,,,,,,,,,,,216.21657739998773,None,0.0012447399931261316,1.0012447399931261,1,Stimuli_3D\hard\40_0.jpg,0,same,217.2202346999984,None,up,0.2848708999954397,217.2202346999984,None,None,None,002,001,B,2022_Mar_07_2107,270300_Mental_Rotation,2021.2.3,143.21066862017952,
,,,,121,0,121,0,,,,,,,,,,,,,,,,,,,,,,,,,,,,,,,,,,,,,,217.53146739999647,None,0.002856819992302917,1.002856819992303,1,Stimuli_3D\hard\40_0_R.jpg,0,diff,218.53509530000156,None,down,0.16935599999851547,218.53509530000156,None,None,None,002,001,B,2022_Mar_07_2107,270300_Mental_Rotation,2021.2.3,143.21066862017952,
,,,,122,0,122,0,,,,,,,,,,,,,,,,,,,,,,,,,,,,,,,,,,,,,,218.74089259999164,None,0.0019039600010728464,1.0019039600010728,1,Stimuli_3D\hard\40_50.jpg,50,same,219.74554229999194,None,up,0.14651449999655597,219.74554229999194,None,None,None,002,001,B,2022_Mar_07_2107,270300_Mental_Rotation,2021.2.3,143.21066862017952,
,,,,123,0,123,0,,,,,,,,,,,,,,,,,,,,,,,,,,,,,,,,,,,,,,219.92688559999806,None,0.003924500007997267,1.0039245000079973,1,Stimuli_3D\hard\40_50_R.jpg,50,diff,220.93372499999532,None,down,0.17007809999631718,220.93372499999532,None,None,None,002,001,B,2022_Mar_07_2107,270300_Mental_Rotation,2021.2.3,143.21066862017952,
,,,,124,0,124,0,,,,,,,,,,,,,,,,,,,,,,,,,,,,,,,,,,,,,,221.1272145999974,None,0.006489819992566481,1.0064898199925665,1,Stimuli_3D\hard\40_100.jpg,100,same,222.1298730999988,None,up,0.1871299999911571,222.1298730999988,None,None,None,002,001,B,2022_Mar_07_2107,270300_Mental_Rotation,2021.2.3,143.21066862017952,
,,,,125,0,125,0,,,,,,,,,,,,,,,,,,,,,,,,,,,,,,,,,,,,,,222.35474789999716,None,0.006428100008633919,1.006428100008634,1,Stimuli_3D\hard\40_100_R.jpg,100,diff,223.358413199996,None,down,0.058776700010639615,223.358413199996,None,None,None,002,001,B,2022_Mar_07_2107,270300_Mental_Rotation,2021.2.3,143.21066862017952,
,,,,126,0,126,0,,,,,,,,,,,,,,,,,,,,,,,,,,,,,,,,,,,,,,223.45882559999882,None,0.005186540001886897,1.005186540001887,1,Stimuli_3D\hard\40_150.jpg,150,same,224.4654761999991,None,up,0.22632180000073276,224.4654761999991,None,None,None,002,001,B,2022_Mar_07_2107,270300_Mental_Rotation,2021.2.3,143.21066862017952,
,,,,127,0,127,0,,,,,,,,,,,,,,,,,,,,,,,,,,,,,,,,,,,,,,224.72638319998805,None,0.006407399996533059,1.006407399996533,1,Stimuli_3D\hard\40_150_R.jpg,150,diff,225.7285789000016,None,down,0.02554269999382086,225.7285789000016,None,None,None,002,001,B,2022_Mar_07_2107,270300_Mental_Rotation,2021.2.3,143.21066862017952,
,,,,128,0,128,0,,,,,,,,,,,,,,,,,,,,,,,,,,,,,,,,,,,,,,225.77487889998883,None,0.006523619988001883,1.0065236199880019,1,Stimuli_3D\hard\41_0.jpg,0,same,226.77752259999397,None,up,0.038935799995670095,226.77752259999397,None,None,None,002,001,B,2022_Mar_07_2107,270300_Mental_Rotation,2021.2.3,143.21066862017952,
,,,,129,0,129,0,,,,,,,,,,,,,,,,,,,,,,,,,,,,,,,,,,,,,,226.8344029,None,0.006829320001997985,1.006829320001998,1,Stimuli_3D\hard\41_0_R.jpg,0,diff,227.83789469998737,None,down,0.07836999998835381,227.83789469998737,None,227.93935399998736,None,002,001,B,2022_Mar_07_2107,270300_Mental_Rotation,2021.2.3,143.21066862017952,
,,,,130,0,130,0,,,,,,,,,,,,,,,,,,,,,,,,,,,,,,,,,,,,,,230.9438749999972,None,0.0003669400030048564,1.0003669400030049,1,Stimuli_3D\hard\41_50.jpg,50,same,231.94856589999108,None,up,0.4060751000070013,231.94856589999108,None,None,None,002,001,B,2022_Mar_07_2107,270300_Mental_Rotation,2021.2.3,143.21066862017952,
,,,,131,0,131,0,,,,,,,,,,,,,,,,,,,,,,,,,,,,,,,,,,,,,,232.38555300000007,None,0.0008110600028885528,1.0008110600028886,1,Stimuli_3D\hard\41_50_R.jpg,50,diff,233.38948349999555,None,down,0.17682619999686722,233.38948349999555,None,None,None,002,001,B,2022_Mar_07_2107,270300_Mental_Rotation,2021.2.3,143.21066862017952,
,,,,132,0,132,0,,,,,,,,,,,,,,,,,,,,,,,,,,,,,,,,,,,,,,233.5896461999946,None,0.0001383800117764622,1.0001383800117765,1,Stimuli_3D\hard\41_100.jpg,100,same,234.5927992999932,None,up,0.13666509999893606,234.5927992999932,None,None,None,002,001,B,2022_Mar_07_2107,270300_Mental_Rotation,2021.2.3,143.21066862017952,
,,,,133,0,133,0,,,,,,,,,,,,,,,,,,,,,,,,,,,,,,,,,,,,,,234.7672753999941,None,0.006600399996386841,1.0066003999963868,1,Stimuli_3D\hard\41_100_R.jpg,100,diff,235.77002649998758,None,down,0.1219847999891499,235.77002649998758,None,None,None,002,001,B,2022_Mar_07_2107,270300_Mental_Rotation,2021.2.3,143.21066862017952,
,,,,134,0,134,0,,,,,,,,,,,,,,,,,,,,,,,,,,,,,,,,,,,,,,235.92750539998815,None,0.00528120000672061,1.0052812000067206,1,Stimuli_3D\hard\41_150.jpg,150,same,236.93235579998873,None,up,0.15899729999364354,236.93235579998873,None,None,None,002,001,B,2022_Mar_07_2107,270300_Mental_Rotation,2021.2.3,143.21066862017952,
,,,,135,0,135,0,,,,,,,,,,,,,,,,,,,,,,,,,,,,,,,,,,,,,,237.11058279999997,None,0.006374720003805123,1.0063747200038051,1,Stimuli_3D\hard\41_150_R.jpg,150,diff,238.1148269999976,None,down,0.06381779999355786,238.1148269999976,None,None,None,002,001,B,2022_Mar_07_2107,270300_Mental_Rotation,2021.2.3,143.21066862017952,
,,,,136,0,136,0,,,,,,,,,,,,,,,,,,,,,,,,,,,,,,,,,,,,,,238.2001515999873,None,1.558000803925097e-05,1.0000155800080393,1,Stimuli_3D\hard\42_0.jpg,0,same,239.20460349999485,None,up,0.16251480000209995,239.20460349999485,None,None,None,002,001,B,2022_Mar_07_2107,270300_Mental_Rotation,2021.2.3,143.21066862017952,
,,,,137,0,137,0,,,,,,,,,,,,,,,,,,,,,,,,,,,,,,,,,,,,,,239.4017840999877,None,0.0058905000041704625,1.0058905000041705,1,Stimuli_3D\hard\42_0_R.jpg,0,diff,240.4117050999921,None,down,0.09277950000250712,240.4117050999921,None,None,None,002,001,B,2022_Mar_07_2107,270300_Mental_Rotation,2021.2.3,143.21066862017952,
,,,,138,0,138,0,,,,,,,,,,,,,,,,,,,,,,,,,,,,,,,,,,,,,,240.5420715999935,None,0.0004472599975997582,1.0004472599975998,1,Stimuli_3D\hard\42_50.jpg,50,same,241.54426650000096,None,up,0.02211009999155067,241.54426650000096,None,None,None,002,001,B,2022_Mar_07_2107,270300_Mental_Rotation,2021.2.3,143.21066862017952,
,,,,139,0,139,0,,,,,,,,,,,,,,,,,,,,,,,,,,,,,,,,,,,,,,241.58384159998968,None,0.0003364799922564998,1.0003364799922565,1,Stimuli_3D\hard\42_50_R.jpg,50,diff,242.58727910000016,None,down,0.028943600002094172,242.58727910000016,None,242.64050149999093,None,002,001,B,2022_Mar_07_2107,270300_Mental_Rotation,2021.2.3,143.21066862017952,
,,,,140,0,140,0,,,,,,,,,,,,,,,,,,,,,,,,,,,,,,,,,,,,,,245.65030269999988,None,0.006808780002756976,1.006808780002757,1,Stimuli_3D\hard\42_100.jpg,100,same,246.6544120999897,None,up,0.20036020000407007,246.6544120999897,None,None,None,002,001,B,2022_Mar_07_2107,270300_Mental_Rotation,2021.2.3,143.21066862017952,
,,,,141,0,141,0,,,,,,,,,,,,,,,,,,,,,,,,,,,,,,,,,,,,,,246.8929580999975,None,0.00397289999818895,1.003972899998189,1,Stimuli_3D\hard\42_100_R.jpg,100,diff,247.89654699999664,None,down,0.09555890000774525,247.89654699999664,None,None,None,002,001,B,2022_Mar_07_2107,270300_Mental_Rotation,2021.2.3,143.21066862017952,
,,,,142,0,142,0,,,,,,,,,,,,,,,,,,,,,,,,,,,,,,,,,,,,,,248.01626589999069,None,0.003679720000945963,1.003679720000946,1,Stimuli_3D\hard\42_150.jpg,150,same,249.0188979999948,None,up,0.1483789999911096,249.0188979999948,None,None,None,002,001,B,2022_Mar_07_2107,270300_Mental_Rotation,2021.2.3,143.21066862017952,
,,,,143,0,143,0,,,,,,,,,,,,,,,,,,,,,,,,,,,,,,,,,,,,,,249.2061057999963,None,0.003722499997820705,1.0037224999978207,1,Stimuli_3D\hard\42_150_R.jpg,150,diff,250.20970939999097,None,down,0.019180999996024184,250.20970939999097,None,None,None,002,001,B,2022_Mar_07_2107,270300_Mental_Rotation,2021.2.3,143.21066862017952,
,,,,144,0,144,0,,,,,,,,,,,,,,,,,,,,,,,,,,,,,,,,,,,,,,250.25071949999256,None,0.006033619996742345,1.0060336199967423,1,Stimuli_3D\hard\43_0.jpg,0,same,251.2539989999932,None,up,0.1130808000016259,251.2539989999932,None,None,None,002,001,B,2022_Mar_07_2107,270300_Mental_Rotation,2021.2.3,143.21066862017952,
,,,,145,0,145,0,,,,,,,,,,,,,,,,,,,,,,,,,,,,,,,,,,,,,,251.40895099999034,None,0.001450199997634627,1.0014501999976346,1,Stimuli_3D\hard\43_0_R.jpg,0,diff,252.41248089999135,None,down,0.0918387999990955,252.41248089999135,None,None,None,002,001,B,2022_Mar_07_2107,270300_Mental_Rotation,2021.2.3,143.21066862017952,
,,,,146,0,146,0,,,,,,,,,,,,,,,,,,,,,,,,,,,,,,,,,,,,,,252.54179009998916,None,0.004562399990390986,1.004562399990391,1,Stimuli_3D\hard\43_50.jpg,50,same,253.54548409998824,None,up,0.19713309999497142,253.54548409998824,None,None,None,002,001,B,2022_Mar_07_2107,270300_Mental_Rotation,2021.2.3,143.21066862017952,
,,,,147,0,147,0,,,,,,,,,,,,,,,,,,,,,,,,,,,,,,,,,,,,,,253.78122639999492,None,0.003804899999522604,1.0038048999995226,1,Stimuli_3D\hard\43_50_R.jpg,50,diff,254.78452019998804,None,down,0.36992019999888726,254.78452019998804,None,None,None,002,001,B,2022_Mar_07_2107,270300_Mental_Rotation,2021.2.3,143.21066862017952,
,,,,148,0,148,0,,,,,,,,,,,,,,,,,,,,,,,,,,,,,,,,,,,,,,255.17632479999156,None,0.00014668000221718103,1.0001466800022172,1,Stimuli_3D\hard\43_100.jpg,100,same,256.18031789999804,None,up,0.18634619998920243,256.18031789999804,None,None,None,002,001,B,2022_Mar_07_2107,270300_Mental_Rotation,2021.2.3,143.21066862017952,
,,,,149,0,149,0,,,,,,,,,,,,,,,,,,,,,,,,,,,,,,,,,,,,,,256.395806799992,None,0.003712859994266182,1.0037128599942662,1,Stimuli_3D\hard\43_100_R.jpg,100,diff,257.3980770999915,None,down,0.08095579998916946,257.3980770999915,None,257.51140339999984,None,002,001,B,2022_Mar_07_2107,270300_Mental_Rotation,2021.2.3,143.21066862017952,
,,,,150,0,150,0,,,,,,,,,,,,,,,,,,,,,,,,,,,,,,,,,,,,,,260.51430589999654,None,0.0012076400016667321,1.0012076400016667,1,Stimuli_3D\hard\43_150.jpg,150,same,261.51850710000144,None,up,0.2106255999970017,261.51850710000144,None,None,None,002,001,B,2022_Mar_07_2107,270300_Mental_Rotation,2021.2.3,143.21066862017952,
,,,,151,0,151,0,,,,,,,,,,,,,,,,,,,,,,,,,,,,,,,,,,,,,,261.76785419999214,None,0.0067811000044457614,1.0067811000044458,1,Stimuli_3D\hard\43_150_R.jpg,150,diff,262.7710795999883,None,down,0.19582169999193866,262.7710795999883,None,None,None,002,001,B,2022_Mar_07_2107,270300_Mental_Rotation,2021.2.3,143.21066862017952,
,,,,152,0,152,0,,,,,,,,,,,,,,,,,,,,,,,,,,,,,,,,,,,,,,263.0027904999879,None,0.004176000016741455,1.0041760000167415,1,Stimuli_3D\hard\44_0.jpg,0,same,264.00583709999046,None,up,0.7240384000033373,264.00583709999046,None,None,None,002,001,B,2022_Mar_07_2107,270300_Mental_Rotation,2021.2.3,143.21066862017952,
,,,,153,0,153,0,,,,,,,,,,,,,,,,,,,,,,,,,,,,,,,,,,,,,,264.75235519999114,None,0.006836420012405142,1.0068364200124051,1,Stimuli_3D\hard\44_0_R.jpg,0,diff,265.75705439999,None,down,0.24685670000326354,265.75705439999,None,None,None,002,001,B,2022_Mar_07_2107,270300_Mental_Rotation,2021.2.3,143.21066862017952,
,,,,154,0,154,0,,,,,,,,,,,,,,,,,,,,,,,,,,,,,,,,,,,,,,266.02703969999857,None,0.0031547200051136315,1.0031547200051136,1,Stimuli_3D\hard\44_50.jpg,50,same,267.0345808999991,None,up,0.04527960000268649,267.0345808999991,None,None,None,002,001,B,2022_Mar_07_2107,270300_Mental_Rotation,2021.2.3,143.21066862017952,
,,,,155,0,155,0,,,,,,,,,,,,,,,,,,,,,,,,,,,,,,,,,,,,,,267.1225520000007,None,0.000488800011225976,1.000488800011226,1,Stimuli_3D\hard\44_50_R.jpg,50,diff,268.12626699999964,None,down,0.0782863000058569,268.12626699999964,None,None,None,002,001,B,2022_Mar_07_2107,270300_Mental_Rotation,2021.2.3,143.21066862017952,
,,,,156,0,156,0,,,,,,,,,,,,,,,,,,,,,,,,,,,,,,,,,,,,,,268.23898909999116,None,0.006371600000420585,1.0063716000004206,1,Stimuli_3D\hard\44_100.jpg,100,same,269.2438146999921,None,up,0.22313600000052247,269.2438146999921,None,None,None,002,001,B,2022_Mar_07_2107,270300_Mental_Rotation,2021.2.3,143.21066862017952,
,,,,157,0,157,0,,,,,,,,,,,,,,,,,,,,,,,,,,,,,,,,,,,,,,269.4971297999873,None,0.0022085599921410903,1.002208559992141,1,Stimuli_3D\hard\44_100_R.jpg,100,diff,270.5013637999946,None,down,0.1406252000015229,270.5013637999946,None,None,None,002,001,B,2022_Mar_07_2107,270300_Mental_Rotation,2021.2.3,143.21066862017952,
,,,,158,0,158,0,,,,,,,,,,,,,,,,,,,,,,,,,,,,,,,,,,,,,,270.682561900001,None,0.004474000001209788,1.0044740000012098,1,Stimuli_3D\hard\44_150.jpg,150,same,271.6861949999875,None,up,0.10685710000689141,271.6861949999875,None,None,None,002,001,B,2022_Mar_07_2107,270300_Mental_Rotation,2021.2.3,143.21066862017952,
,,,,159,0,159,0,,,,,,,,,,,,,,,,,,,,,,,,,,,,,,,,,,,,,,271.83361689999583,None,0.003920900009688921,1.003920900009689,1,Stimuli_3D\hard\44_150_R.jpg,150,diff,272.8372984999878,None,down,0.3543490000010934,272.8372984999878,None,273.22246729998733,None,002,001,B,2022_Mar_07_2107,270300_Mental_Rotation,2021.2.3,143.21066862017952,
,,,,160,0,160,0,,,,,,,,,,,,,,,,,,,,,,,,,,,,,,,,,,,,,,276.2284645999898,None,0.0005197399877943099,1.0005197399877943,1,Stimuli_3D\hard\45_0.jpg,0,same,277.2303599000006,None,up,0.23689430000376888,277.2303599000006,None,None,None,002,001,B,2022_Mar_07_2107,270300_Mental_Rotation,2021.2.3,143.21066862017952,
,,,,161,0,161,0,,,,,,,,,,,,,,,,,,,,,,,,,,,,,,,,,,,,,,277.5060790999996,None,0.0053942000231472775,1.0053942000231473,1,Stimuli_3D\hard\45_0_R.jpg,0,diff,278.5099759000004,None,down,0.13153929999680258,278.5099759000004,None,None,None,002,001,B,2022_Mar_07_2107,270300_Mental_Rotation,2021.2.3,143.21066862017952,
,,,,162,0,162,0,,,,,,,,,,,,,,,,,,,,,,,,,,,,,,,,,,,,,,278.6622418999905,None,0.0061908200004836544,1.0061908200004837,1,Stimuli_3D\hard\45_50.jpg,50,same,279.66675989999203,None,up,0.19953549999627285,279.66675989999203,None,None,None,002,001,B,2022_Mar_07_2107,270300_Mental_Rotation,2021.2.3,143.21066862017952,
,,,,163,0,163,0,,,,,,,,,,,,,,,,,,,,,,,,,,,,,,,,,,,,,,279.88835619999736,None,0.006133019982371479,1.0061330199823715,1,Stimuli_3D\hard\45_50_R.jpg,50,diff,280.8929838999902,None,down,0.21263429999817163,280.8929838999902,None,None,None,002,001,B,2022_Mar_07_2107,270300_Mental_Rotation,2021.2.3,143.21066862017952,
,,,,164,0,164,0,,,,,,,,,,,,,,,,,,,,,,,,,,,,,,,,,,,,,,281.1421963999892,None,0.006327399998554029,1.006327399998554,1,Stimuli_3D\hard\45_100.jpg,100,same,282.14601579999726,None,up,0.08289479999803007,282.14601579999726,None,None,None,002,001,B,2022_Mar_07_2107,270300_Mental_Rotation,2021.2.3,143.21066862017952,
,,,,165,0,165,0,,,,,,,,,,,,,,,,,,,,,,,,,,,,,,,,,,,,,,282.24883549999504,None,0.00683522000326775,1.0068352200032678,1,Stimuli_3D\hard\45_100_R.jpg,100,diff,283.2524151999969,None,down,0.11472539999522269,283.2524151999969,None,None,None,002,001,B,2022_Mar_07_2107,270300_Mental_Rotation,2021.2.3,143.21066862017952,
,,,,166,0,166,0,,,,,,,,,,,,,,,,,,,,,,,,,,,,,,,,,,,,,,283.40617009998823,None,0.0043172999867238104,1.0043172999867238,1,Stimuli_3D\hard\45_150.jpg,150,same,284.41035510000074,None,up,0.09410319999733474,284.41035510000074,None,None,None,002,001,B,2022_Mar_07_2107,270300_Mental_Rotation,2021.2.3,143.21066862017952,
,,,,167,0,167,0,,,,,,,,,,,,,,,,,,,,,,,,,,,,,,,,,,,,,,284.53113589998975,None,0.003366120014106855,1.0033661200141069,1,Stimuli_3D\hard\45_150_R.jpg,150,diff,285.534848299998,None,down,0.13227550000010524,285.534848299998,None,None,None,002,001,B,2022_Mar_07_2107,270300_Mental_Rotation,2021.2.3,143.21066862017952,
,,,,168,0,168,0,,,,,,,,,,,,,,,,,,,,,,,,,,,,,,,,,,,,,,285.71491869998863,None,0.005313039990141988,1.005313039990142,1,Stimuli_3D\hard\46_0.jpg,0,same,286.72008499999356,None,up,0.10986740000953432,286.72008499999356,None,None,None,002,001,B,2022_Mar_07_2107,270300_Mental_Rotation,2021.2.3,143.21066862017952,
,,,,169,0,169,0,,,,,,,,,,,,,,,,,,,,,,,,,,,,,,,,,,,,,,286.85832509999454,None,0.0037931199913145974,1.0037931199913146,1,Stimuli_3D\hard\46_0_R.jpg,0,diff,287.8715366999968,None,down,0.1201195000030566,287.8715366999968,None,288.01403149998805,None,002,001,B,2022_Mar_07_2107,270300_Mental_Rotation,2021.2.3,143.21066862017952,
,,,,170,0,170,0,,,,,,,,,,,,,,,,,,,,,,,,,,,,,,,,,,,,,,291.01669499999844,None,0.000715940012014471,1.0007159400120145,1,Stimuli_3D\hard\46_50.jpg,50,same,292.02000899999985,None,up,0.43410060000314843,292.02000899999985,None,None,None,002,001,B,2022_Mar_07_2107,270300_Mental_Rotation,2021.2.3,143.21066862017952,
,,,,171,0,171,0,,,,,,,,,,,,,,,,,,,,,,,,,,,,,,,,,,,,,,292.4882854999887,None,0.005821099999593571,1.0058210999995936,1,Stimuli_3D\hard\46_50_R.jpg,50,diff,293.4923198999895,None,down,0.04931119999673683,293.4923198999895,None,None,None,002,001,B,2022_Mar_07_2107,270300_Mental_Rotation,2021.2.3,143.21066862017952,
,,,,172,0,172,0,,,,,,,,,,,,,,,,,,,,,,,,,,,,,,,,,,,,,,293.5599599999987,None,0.006804020013078116,1.0068040200130781,1,Stimuli_3D\hard\46_100.jpg,100,same,294.56261679998715,None,up,0.20367439999245107,294.56261679998715,None,None,None,002,001,B,2022_Mar_07_2107,270300_Mental_Rotation,2021.2.3,143.21066862017952,
,,,,173,0,173,0,,,,,,,,,,,,,,,,,,,,,,,,,,,,,,,,,,,,,,294.7882430999889,None,0.006324219983071089,1.006324219983071,1,Stimuli_3D\hard\46_100_R.jpg,100,diff,295.7944865999889,None,down,0.14742730000580195,295.7944865999889,None,None,None,002,001,B,2022_Mar_07_2107,270300_Mental_Rotation,2021.2.3,143.21066862017952,
,,,,174,0,174,0,,,,,,,,,,,,,,,,,,,,,,,,,,,,,,,,,,,,,,295.98257719998946,None,0.0018601000047056004,1.0018601000047056,1,Stimuli_3D\hard\46_150.jpg,150,same,296.98526409998885,None,up,0.2937499999970896,296.98526409998885,None,None,None,002,001,B,2022_Mar_07_2107,270300_Mental_Rotation,2021.2.3,143.21066862017952,
,,,,175,0,175,0,,,,,,,,,,,,,,,,,,,,,,,,,,,,,,,,,,,,,,297.3050004999968,None,0.00013782001042272896,1.0001378200104227,1,Stimuli_3D\hard\46_150_R.jpg,150,diff,298.30766209999274,None,down,0.09696289998828433,298.30766209999274,None,None,None,002,001,B,2022_Mar_07_2107,270300_Mental_Rotation,2021.2.3,143.21066862017952,
,,,,176,0,176,0,,,,,,,,,,,,,,,,,,,,,,,,,,,,,,,,,,,,,,298.44751889999316,None,0.002687200001673773,1.0026872000016738,1,Stimuli_3D\hard\47_0.jpg,0,same,299.45160229998874,None,up,0.16502020000189077,299.45160229998874,None,None,None,002,001,B,2022_Mar_07_2107,270300_Mental_Rotation,2021.2.3,143.21066862017952,
,,,,177,0,177,0,,,,,,,,,,,,,,,,,,,,,,,,,,,,,,,,,,,,,,299.6364443999919,None,0.005662119991029613,1.0056621199910296,1,Stimuli_3D\hard\47_0_R.jpg,0,diff,300.64000829998986,None,down,0.12666650000028312,300.64000829998986,None,None,None,002,001,B,2022_Mar_07_2107,270300_Mental_Rotation,2021.2.3,143.21066862017952,
,,,,178,0,178,0,,,,,,,,,,,,,,,,,,,,,,,,,,,,,,,,,,,,,,300.79800989999785,None,0.004676659998949617,1.0046766599989496,1,Stimuli_3D\hard\47_50.jpg,50,same,301.8009846999921,None,up,0.17801559998770244,301.8009846999921,None,None,None,002,001,B,2022_Mar_07_2107,270300_Mental_Rotation,2021.2.3,143.21066862017952,
,,,,179,0,179,0,,,,,,,,,,,,,,,,,,,,,,,,,,,,,,,,,,,,,,302.01114869999583,None,0.0009261599916499108,1.00092615999165,1,Stimuli_3D\hard\47_50_R.jpg,50,diff,303.01607949999743,None,down,0.08814999999594875,303.01607949999743,None,303.14440099999774,None,002,001,B,2022_Mar_07_2107,270300_Mental_Rotation,2021.2.3,143.21066862017952,
,,,,180,0,180,0,,,,,,,,,,,,,,,,,,,,,,,,,,,,,,,,,,,,,,306.1546959999978,None,0.00015484000323340297,1.0001548400032334,1,Stimuli_3D\hard\47_100.jpg,100,same,307.1573744999914,None,up,0.2338813999958802,307.1573744999914,None,None,None,002,001,B,2022_Mar_07_2107,270300_Mental_Rotation,2021.2.3,143.21066862017952,
,,,,181,0,181,0,,,,,,,,,,,,,,,,,,,,,,,,,,,,,,,,,,,,,,307.4120726999972,None,0.006313720004982315,1.0063137200049823,1,Stimuli_3D\hard\47_100_R.jpg,100,diff,308.41650690000097,None,down,0.22474920000240672,308.41650690000097,None,None,None,002,001,B,2022_Mar_07_2107,270300_Mental_Rotation,2021.2.3,143.21066862017952,
,,,,182,0,182,0,,,,,,,,,,,,,,,,,,,,,,,,,,,,,,,,,,,,,,308.66353510000044,None,0.004404519990202971,1.004404519990203,1,Stimuli_3D\hard\47_150.jpg,150,same,309.6693660999881,None,up,0.23498360000667162,309.6693660999881,None,None,None,002,001,B,2022_Mar_07_2107,270300_Mental_Rotation,2021.2.3,143.21066862017952,
,,,,183,0,183,0,,,,,,,,,,,,,,,,,,,,,,,,,,,,,,,,,,,,,,309.9419009999983,None,0.0027387000009184703,1.0027387000009185,1,Stimuli_3D\hard\47_150_R.jpg,150,diff,310.95034509999095,None,down,0.17929119999462273,310.95034509999095,None,None,None,002,001,B,2022_Mar_07_2107,270300_Mental_Rotation,2021.2.3,143.21066862017952,
,,,,184,0,184,0,,,,,,,,,,,,,,,,,,,,,,,,,,,,,,,,,,,,,,311.16792110000097,None,0.004171500011580065,1.00417150001158,1,Stimuli_3D\hard\48_0.jpg,0,same,312.17071679999935,None,up,0.2209517000010237,312.17071679999935,None,None,None,002,001,B,2022_Mar_07_2107,270300_Mental_Rotation,2021.2.3,143.21066862017952,
,,,,185,0,185,0,,,,,,,,,,,,,,,,,,,,,,,,,,,,,,,,,,,,,,312.42462569999043,None,0.0005646600038744509,1.0005646600038745,1,Stimuli_3D\hard\48_0_R.jpg,0,diff,313.4277521999902,None,down,0.18889649999618996,313.4277521999902,None,None,None,002,001,B,2022_Mar_07_2107,270300_Mental_Rotation,2021.2.3,143.21066862017952,
,,,,186,0,186,0,,,,,,,,,,,,,,,,,,,,,,,,,,,,,,,,,,,,,,313.643087199991,None,0.005216860008658841,1.0052168600086588,1,Stimuli_3D\hard\48_50.jpg,50,same,314.64591399999335,None,up,0.13378150000062305,314.64591399999335,None,None,None,002,001,B,2022_Mar_07_2107,270300_Mental_Rotation,2021.2.3,143.21066862017952,
,,,,187,0,187,0,,,,,,,,,,,,,,,,,,,,,,,,,,,,,,,,,,,,,,314.8209823999932,None,0.0038454000023193657,1.0038454000023194,1,Stimuli_3D\hard\48_50_R.jpg,50,diff,315.82476599999063,None,down,0.16667469999811146,315.82476599999063,None,None,None,002,001,B,2022_Mar_07_2107,270300_Mental_Rotation,2021.2.3,143.21066862017952,
,,,,188,0,188,0,,,,,,,,,,,,,,,,,,,,,,,,,,,,,,,,,,,,,,316.0154695999954,None,0.0058389199984958395,1.0058389199984958,1,Stimuli_3D\hard\48_100.jpg,100,same,317.0191734999971,None,up,0.13507849999587052,317.0191734999971,None,None,None,002,001,B,2022_Mar_07_2107,270300_Mental_Rotation,2021.2.3,143.21066862017952,
,,,,189,0,189,0,,,,,,,,,,,,,,,,,,,,,,,,,,,,,,,,,,,,,,317.19421869999496,None,0.005645800003549084,1.005645800003549,1,Stimuli_3D\hard\48_100_R.jpg,100,diff,318.1972342999943,None,down,0.18159469999955036,318.1972342999943,None,318.3995930999954,None,002,001,B,2022_Mar_07_2107,270300_Mental_Rotation,2021.2.3,143.21066862017952,
,,,,190,0,190,0,,,,,,,,,,,,,,,,,,,,,,,,,,,,,,,,,,,,,,321.4080968999915,None,0.00038093999319244176,1.0003809399931924,1,Stimuli_3D\hard\48_150.jpg,150,same,322.4114864000003,None,up,0.7171966000023531,322.4114864000003,None,None,None,002,001,B,2022_Mar_07_2107,270300_Mental_Rotation,2021.2.3,143.21066862017952,
,,,,191,0,191,0,,,,,,,,,,,,,,,,,,,,,,,,,,,,,,,,,,,,,,323.15256729999965,None,0.005808719986816868,1.0058087199868169,1,Stimuli_3D\hard\48_150_R.jpg,150,diff,324.15514259999327,None,down,0.1610670000081882,324.15514259999327,None,None,None,002,001,B,2022_Mar_07_2107,270300_Mental_Rotation,2021.2.3,143.21066862017952,
,,,,192,0,192,0,,,,,,,,,,,,,,,,,,,,,,,,,,,,,,,,,,,,,,324.3341522999981,None,0.006735820003086701,1.0067358200030867,1,Stimuli_3D\easy\01_0.jpg,0,same,325.3384127999889,None,up,0.2035087999975076,325.3384127999889,None,None,None,002,001,B,2022_Mar_07_2107,270300_Mental_Rotation,2021.2.3,143.21066862017952,
,,,,193,0,193,0,,,,,,,,,,,,,,,,,,,,,,,,,,,,,,,,,,,,,,325.58124669999233,None,0.0019150000007357448,1.0019150000007357,1,Stimuli_3D\easy\01_0_R.jpg,0,diff,326.5882973999978,None,down,0.15387310000369325,326.5882973999978,None,None,None,002,001,B,2022_Mar_07_2107,270300_Mental_Rotation,2021.2.3,143.21066862017952,
,,,,194,0,194,0,,,,,,,,,,,,,,,,,,,,,,,,,,,,,,,,,,,,,,326.77628799999366,None,0.004932700016070157,1.0049327000160702,1,Stimuli_3D\easy\01_50.jpg,50,same,327.78236639998795,None,up,0.22127650000038557,327.78236639998795,None,None,None,002,001,B,2022_Mar_07_2107,270300_Mental_Rotation,2021.2.3,143.21066862017952,
,,,,195,0,195,0,,,,,,,,,,,,,,,,,,,,,,,,,,,,,,,,,,,,,,328.0262365999952,None,0.0064867200126172975,1.0064867200126173,1,Stimuli_3D\easy\01_50_R.jpg,50,diff,329.03231479998794,None,down,0.1718710999994073,329.03231479998794,None,None,None,002,001,B,2022_Mar_07_2107,270300_Mental_Rotation,2021.2.3,143.21066862017952,
,,,,196,0,196,0,,,,,,,,,,,,,,,,,,,,,,,,,,,,,,,,,,,,,,329.2391085999989,None,0.00694360000488814,1.0069436000048881,1,Stimuli_3D\easy\01_100.jpg,100,same,330.2458142999967,None,up,0.13403319999633823,330.2458142999967,None,None,None,002,001,B,2022_Mar_07_2107,270300_Mental_Rotation,2021.2.3,143.21066862017952,
,,,,197,0,197,0,,,,,,,,,,,,,,,,,,,,,,,,,,,,,,,,,,,,,,330.4109169000003,None,0.0006384599837474525,1.0006384599837475,1,Stimuli_3D\easy\01_100_R.jpg,100,diff,331.4143369999947,None,down,0.1519308999995701,331.4143369999947,None,None,None,002,001,B,2022_Mar_07_2107,270300_Mental_Rotation,2021.2.3,143.21066862017952,
,,,,198,0,198,0,,,,,,,,,,,,,,,,,,,,,,,,,,,,,,,,,,,,,,331.5891539000004,None,9.737999062053859e-05,1.0000973799906205,1,Stimuli_3D\easy\01_150.jpg,150,same,332.59201989999565,None,up,0.19971049999003299,332.59201989999565,None,None,None,002,001,B,2022_Mar_07_2107,270300_Mental_Rotation,2021.2.3,143.21066862017952,
,,,,199,0,199,0,,,,,,,,,,,,,,,,,,,,,,,,,,,,,,,,,,,,,,332.8128566999949,None,0.004410920009831898,1.004410920009832,1,Stimuli_3D\easy\01_150_R.jpg,150,diff,333.8163050000003,None,down,0.1883668999944348,333.8163050000003,None,334.0526095999958,None,002,001,B,2022_Mar_07_2107,270300_Mental_Rotation,2021.2.3,143.21066862017952,
,,,,200,0,200,0,,,,,,,,,,,,,,,,,,,,,,,,,,,,,,,,,,,,,,337.0595026999945,None,0.006926980000571348,1.0069269800005713,1,Stimuli_3D\easy\02_0.jpg,0,same,338.06488619999436,None,up,0.18946259999938775,338.06488619999436,None,None,None,002,001,B,2022_Mar_07_2107,270300_Mental_Rotation,2021.2.3,143.21066862017952,
,,,,201,0,201,0,,,,,,,,,,,,,,,,,,,,,,,,,,,,,,,,,,,,,,338.28566099998716,None,0.006696499985991977,1.006696499985992,1,Stimuli_3D\easy\02_0_R.jpg,0,diff,339.2904680999927,None,down,0.22548520000418648,339.2904680999927,None,None,None,002,001,B,2022_Mar_07_2107,270300_Mental_Rotation,2021.2.3,143.21066862017952,
,,,,202,0,202,0,,,,,,,,,,,,,,,,,,,,,,,,,,,,,,,,,,,,,,339.53794819999894,None,2.6780006010085344e-05,1.00002678000601,1,Stimuli_3D\easy\02_50.jpg,50,same,340.5424248999916,None,up,0.18716889999632258,340.5424248999916,None,None,None,002,001,B,2022_Mar_07_2107,270300_Mental_Rotation,2021.2.3,143.21066862017952,
,,,,203,0,203,0,,,,,,,,,,,,,,,,,,,,,,,,,,,,,,,,,,,,,,340.76077649999934,None,0.005159359992831014,1.005159359992831,1,Stimuli_3D\easy\02_50_R.jpg,50,diff,341.7642390999972,None,down,0.10216429999854881,341.7642390999972,None,None,None,002,001,B,2022_Mar_07_2107,270300_Mental_Rotation,2021.2.3,143.21066862017952,
,,,,204,0,204,0,,,,,,,,,,,,,,,,,,,,,,,,,,,,,,,,,,,,,,341.88533520000055,None,0.006129420013166964,1.006129420013167,1,Stimuli_3D\easy\02_100.jpg,100,same,342.88901449998957,None,up,0.16536569999880157,342.88901449998957,None,None,None,002,001,B,2022_Mar_07_2107,270300_Mental_Rotation,2021.2.3,143.21066862017952,
,,,,205,0,205,0,,,,,,,,,,,,,,,,,,,,,,,,,,,,,,,,,,,,,,343.0874364999909,None,0.0011909599998034537,1.0011909599998035,1,Stimuli_3D\easy\02_100_R.jpg,100,diff,344.09149519998755,None,down,0.06228749999718275,344.09149519998755,None,None,None,002,001,B,2022_Mar_07_2107,270300_Mental_Rotation,2021.2.3,143.21066862017952,
,,,,206,0,206,0,,,,,,,,,,,,,,,,,,,,,,,,,,,,,,,,,,,,,,344.1821709999931,None,0.0014328200049931183,1.0014328200049931,1,Stimuli_3D\easy\02_150.jpg,150,same,345.1853198999888,None,up,0.14323159999912605,345.1853198999888,None,None,None,002,001,B,2022_Mar_07_2107,270300_Mental_Rotation,2021.2.3,143.21066862017952,
,,,,207,0,207,0,,,,,,,,,,,,,,,,,,,,,,,,,,,,,,,,,,,,,,345.3489753999893,None,0.0003245799889555201,1.0003245799889555,1,Stimuli_3D\easy\02_150_R.jpg,150,diff,346.3524491999997,None,down,0.1646030999982031,346.3524491999997,None,None,None,002,001,B,2022_Mar_07_2107,270300_Mental_Rotation,2021.2.3,143.21066862017952,
,,,,208,0,208,0,,,,,,,,,,,,,,,,,,,,,,,,,,,,,,,,,,,,,,346.54173879999144,None,0.0035692199890036136,1.0035692199890036,1,Stimuli_3D\easy\03_0.jpg,0,same,347.54589080000005,None,up,0.7203062000044156,347.54589080000005,None,None,None,002,001,B,2022_Mar_07_2107,270300_Mental_Rotation,2021.2.3,143.21066862017952,
,,,,209,0,209,0,,,,,,,,,,,,,,,,,,,,,,,,,,,,,,,,,,,,,,348.2867770999874,None,0.006474820009316318,1.0064748200093163,1,Stimuli_3D\easy\03_0_R.jpg,0,diff,349.2958010000002,None,down,0.09609779999300372,349.2958010000002,None,349.4395850000001,None,002,001,B,2022_Mar_07_2107,270300_Mental_Rotation,2021.2.3,143.21066862017952,
,,,,210,0,210,0,,,,,,,,,,,,,,,,,,,,,,,,,,,,,,,,,,,,,,352.4446465999936,None,0.0007149399898480624,1.000714939989848,1,Stimuli_3D\easy\03_50.jpg,50,same,353.4491895999963,None,up,0.20530680000956636,353.4491895999963,None,None,None,002,001,B,2022_Mar_07_2107,270300_Mental_Rotation,2021.2.3,143.21066862017952,
,,,,211,0,211,0,,,,,,,,,,,,,,,,,,,,,,,,,,,,,,,,,,,,,,353.70052319999377,None,0.0050597399967955425,1.0050597399967955,1,Stimuli_3D\easy\03_50_R.jpg,50,diff,354.70469610000146,None,down,0.16145930001221132,354.70469610000146,None,None,None,002,001,B,2022_Mar_07_2107,270300_Mental_Rotation,2021.2.3,143.21066862017952,
,,,,212,0,212,0,,,,,,,,,,,,,,,,,,,,,,,,,,,,,,,,,,,,,,354.889294099994,None,0.006625919995713048,1.006625919995713,1,Stimuli_3D\easy\03_100.jpg,100,same,355.8934253999905,None,up,0.11022279999451712,355.8934253999905,None,None,None,002,001,B,2022_Mar_07_2107,270300_Mental_Rotation,2021.2.3,143.21066862017952,
,,,,213,0,213,0,,,,,,,,,,,,,,,,,,,,,,,,,,,,,,,,,,,,,,356.0226706999965,None,0.005843619990628213,1.0058436199906282,1,Stimuli_3D\easy\03_100_R.jpg,100,diff,357.0273842999886,None,down,0.02657339999859687,357.0273842999886,None,None,None,002,001,B,2022_Mar_07_2107,270300_Mental_Rotation,2021.2.3,143.21066862017952,
,,,,214,0,214,0,,,,,,,,,,,,,,,,,,,,,,,,,,,,,,,,,,,,,,357.07608400000026,None,0.0040874200203688815,1.0040874200203689,1,Stimuli_3D\easy\03_150.jpg,150,same,358.0801989999891,None,up,0.15003750000323635,358.0801989999891,None,None,None,002,001,B,2022_Mar_07_2107,270300_Mental_Rotation,2021.2.3,143.21066862017952,
,,,,215,0,215,0,,,,,,,,,,,,,,,,,,,,,,,,,,,,,,,,,,,,,,358.26981839998916,None,0.006092899988288991,1.006092899988289,1,Stimuli_3D\easy\03_150_R.jpg,150,diff,359.2731764999917,None,down,0.15844440000364557,359.2731764999917,None,None,None,002,001,B,2022_Mar_07_2107,270300_Mental_Rotation,2021.2.3,143.21066862017952,
,,,,216,0,216,0,,,,,,,,,,,,,,,,,,,,,,,,,,,,,,,,,,,,,,359.46151549999195,None,0.0006009200151311234,1.0006009200151311,1,Stimuli_3D\easy\04_0.jpg,0,same,360.4677884999983,None,up,0.06092689999786671,360.4677884999983,None,None,None,002,001,B,2022_Mar_07_2107,270300_Mental_Rotation,2021.2.3,143.21066862017952,
,,,,217,0,217,0,,,,,,,,,,,,,,,,,,,,,,,,,,,,,,,,,,,,,,360.55348079999385,None,0.0027292199956718832,1.0027292199956719,1,Stimuli_3D\easy\04_0_R.jpg,0,diff,361.55599369999254,None,down,0.12333760000183247,361.55599369999254,None,None,None,002,001,B,2022_Mar_07_2107,270300_Mental_Rotation,2021.2.3,143.21066862017952,
,,,,218,0,218,0,,,,,,,,,,,,,,,,,,,,,,,,,,,,,,,,,,,,,,361.7177284999925,None,0.0003831000067293644,1.0003831000067294,1,Stimuli_3D\easy\04_50.jpg,50,same,362.7206223999965,None,up,0.146208200007095,362.7206223999965,None,None,None,002,001,B,2022_Mar_07_2107,270300_Mental_Rotation,2021.2.3,143.21066862017952,
,,,,219,0,219,0,,,,,,,,,,,,,,,,,,,,,,,,,,,,,,,,,,,,,,362.88863370000036,None,0.0004979799996362999,1.0004979799996363,1,Stimuli_3D\easy\04_50_R.jpg,50,diff,363.89296909999393,None,down,0.1364328000054229,363.89296909999393,None,364.0679450999887,None,002,001,B,2022_Mar_07_2107,270300_Mental_Rotation,2021.2.3,143.21066862017952,
,,,,220,0,220,0,,,,,,,,,,,,,,,,,,,,,,,,,,,,,,,,,,,,,,367.0823487000016,None,0.00630471998010762,1.0063047199801076,1,Stimuli_3D\easy\04_100.jpg,100,same,368.08712539999397,None,up,0.2290284999908181,368.08712539999397,None,None,None,002,001,B,2022_Mar_07_2107,270300_Mental_Rotation,2021.2.3,143.21066862017952,
,,,,221,0,221,0,,,,,,,,,,,,,,,,,,,,,,,,,,,,,,,,,,,,,,368.34247809999215,None,0.0033534200047142804,1.0033534200047143,1,Stimuli_3D\easy\04_100_R.jpg,100,diff,369.345880199995,None,down,0.15792189999774564,369.345880199995,None,None,None,002,001,B,2022_Mar_07_2107,270300_Mental_Rotation,2021.2.3,143.21066862017952,
,,,,222,0,222,0,,,,,,,,,,,,,,,,,,,,,,,,,,,,,,,,,,,,,,369.5264537999901,None,0.006847319993539713,1.0068473199935397,1,Stimuli_3D\easy\04_150.jpg,150,same,370.5300891999941,None,up,0.13611400000809226,370.5300891999941,None,None,None,002,001,B,2022_Mar_07_2107,270300_Mental_Rotation,2021.2.3,143.21066862017952,
,,,,223,0,223,0,,,,,,,,,,,,,,,,,,,,,,,,,,,,,,,,,,,,,,370.68721319999895,None,0.006003919988870621,1.0060039199888706,1,Stimuli_3D\easy\04_150_R.jpg,150,diff,371.68947859999025,None,down,0.13922650000313297,371.68947859999025,None,None,None,002,001,B,2022_Mar_07_2107,270300_Mental_Rotation,2021.2.3,143.21066862017952,
,,,,224,0,224,0,,,,,,,,,,,,,,,,,,,,,,,,,,,,,,,,,,,,,,371.8511494999984,None,0.0006966799992369488,1.000696679999237,1,Stimuli_3D\easy\05_0.jpg,0,same,372.8544065999886,None,up,0.08688839999376796,372.8544065999886,None,None,None,002,001,B,2022_Mar_07_2107,270300_Mental_Rotation,2021.2.3,143.21066862017952,
,,,,225,0,225,0,,,,,,,,,,,,,,,,,,,,,,,,,,,,,,,,,,,,,,372.96903269999893,None,0.0015808199968887493,1.0015808199968887,1,Stimuli_3D\easy\05_0_R.jpg,0,diff,373.97195549999014,None,down,0.09472359999199398,373.97195549999014,None,None,None,002,001,B,2022_Mar_07_2107,270300_Mental_Rotation,2021.2.3,143.21066862017952,
,,,,226,0,226,0,,,,,,,,,,,,,,,,,,,,,,,,,,,,,,,,,,,,,,374.1029237999901,None,0.006924699991941452,1.0069246999919415,1,Stimuli_3D\easy\05_50.jpg,50,same,375.10798629999044,None,up,0.07090180000523105,375.10798629999044,None,None,None,002,001,B,2022_Mar_07_2107,270300_Mental_Rotation,2021.2.3,143.21066862017952,
,,,,227,0,227,0,,,,,,,,,,,,,,,,,,,,,,,,,,,,,,,,,,,,,,375.21014929999365,None,0.004766359998029657,1.0047663599980297,1,Stimuli_3D\easy\05_50_R.jpg,50,diff,376.2182227999874,None,down,0.12350519999745302,376.2182227999874,None,None,None,002,001,B,2022_Mar_07_2107,270300_Mental_Rotation,2021.2.3,143.21066862017952,
,,,,228,0,228,0,,,,,,,,,,,,,,,,,,,,,,,,,,,,,,,,,,,,,,376.3796896999993,None,0.002222399998572655,1.0022223999985727,1,Stimuli_3D\easy\05_100.jpg,100,same,377.3829047999898,None,up,0.03396200000133831,377.3829047999898,None,None,None,002,001,B,2022_Mar_07_2107,270300_Mental_Rotation,2021.2.3,143.21066862017952,
,,,,229,0,229,0,,,,,,,,,,,,,,,,,,,,,,,,,,,,,,,,,,,,,,377.44980039999064,None,0.0026423599920235574,1.0026423599920236,1,Stimuli_3D\easy\05_100_R.jpg,100,diff,378.45252549998986,None,down,0.051574700002674945,378.45252549998986,None,378.53779689999647,None,002,001,B,2022_Mar_07_2107,270300_Mental_Rotation,2021.2.3,143.21066862017952,
,,,,230,0,230,0,,,,,,,,,,,,,,,,,,,,,,,,,,,,,,,,,,,,,,381.5429831999936,None,0.0010847399826161563,1.0010847399826162,1,Stimuli_3D\easy\05_150.jpg,150,same,382.5478729999886,None,up,0.18145270000968594,382.5478729999886,None,None,None,002,001,B,2022_Mar_07_2107,270300_Mental_Rotation,2021.2.3,143.21066862017952,
,,,,231,0,231,0,,,,,,,,,,,,,,,,,,,,,,,,,,,,,,,,,,,,,,382.7662008999905,None,0.003078800000366755,1.0030788000003668,1,Stimuli_3D\easy\05_150_R.jpg,150,diff,383.7693154000008,None,down,0.08505320000404026,383.7693154000008,None,None,None,002,001,B,2022_Mar_07_2107,270300_Mental_Rotation,2021.2.3,143.21066862017952,
,,,,232,0,232,0,,,,,,,,,,,,,,,,,,,,,,,,,,,,,,,,,,,,,,383.8798034999927,None,0.005754119993071072,1.005754119993071,1,Stimuli_3D\easy\06_0.jpg,0,same,384.88330249999126,None,up,0.15810210000199731,384.88330249999126,None,None,None,002,001,B,2022_Mar_07_2107,270300_Mental_Rotation,2021.2.3,143.21066862017952,
,,,,233,0,233,0,,,,,,,,,,,,,,,,,,,,,,,,,,,,,,,,,,,,,,385.06921599998896,None,0.005106060008984059,1.005106060008984,1,Stimuli_3D\easy\06_0_R.jpg,0,diff,386.07161309999356,None,down,0.04502939998928923,386.07161309999356,None,None,None,002,001,B,2022_Mar_07_2107,270300_Mental_Rotation,2021.2.3,143.21066862017952,
,,,,234,0,234,0,,,,,,,,,,,,,,,,,,,,,,,,,,,,,,,,,,,,,,386.1524548000016,None,7.92600039858371e-05,1.0000792600039858,1,Stimuli_3D\easy\06_50.jpg,50,same,387.1546132999938,None,up,0.0240190999902552,387.1546132999938,None,None,None,002,001,B,2022_Mar_07_2107,270300_Mental_Rotation,2021.2.3,143.21066862017952,
,,,,235,0,235,0,,,,,,,,,,,,,,,,,,,,,,,,,,,,,,,,,,,,,,387.1987608999916,None,0.00012388001778163016,1.0001238800177816,1,Stimuli_3D\easy\06_50_R.jpg,50,diff,388.2028205999959,None,down,0.07618759998877067,388.2028205999959,None,None,None,002,001,B,2022_Mar_07_2107,270300_Mental_Rotation,2021.2.3,143.21066862017952,
,,,,236,0,236,0,,,,,,,,,,,,,,,,,,,,,,,,,,,,,,,,,,,,,,388.3118442999985,None,0.003157459999783896,1.003157459999784,1,Stimuli_3D\easy\06_100.jpg,100,same,389.3150115999888,None,up,0.07669420000456739,389.3150115999888,None,None,None,002,001,B,2022_Mar_07_2107,270300_Mental_Rotation,2021.2.3,143.21066862017952,
,,,,237,0,237,0,,,,,,,,,,,,,,,,,,,,,,,,,,,,,,,,,,,,,,389.4288813999883,None,0.006200100004207343,1.0062001000042073,1,Stimuli_3D\easy\06_100_R.jpg,100,diff,390.4316962999874,None,down,0.4976470999972662,390.4316962999874,None,None,None,002,001,B,2022_Mar_07_2107,270300_Mental_Rotation,2021.2.3,143.21066862017952,
,,,,238,0,238,0,,,,,,,,,,,,,,,,,,,,,,,,,,,,,,,,,,,,,,390.95239500000025,None,0.006352019991027191,1.0063520199910272,1,Stimuli_3D\easy\06_150.jpg,150,same,391.9577786999871,None,up,0.4213982999935979,391.9577786999871,None,None,None,002,001,B,2022_Mar_07_2107,270300_Mental_Rotation,2021.2.3,143.21066862017952,
,,,,239,0,239,0,,,,,,,,,,,,,,,,,,,,,,,,,,,,,,,,,,,,,,392.4140875000012,None,0.0021285599941620603,1.002128559994162,1,Stimuli_3D\easy\06_150_R.jpg,150,diff,393.41632099999697,None,down,0.17478709999704733,393.41632099999697,None,393.6141548999876,None,002,001,B,2022_Mar_07_2107,270300_Mental_Rotation,2021.2.3,143.21066862017952,
,,,,240,0,240,0,,,,,,,,,,,,,,,,,,,,,,,,,,,,,,,,,,,,,,396.6169775999879,None,0.0010809399973368272,1.0010809399973368,1,Stimuli_3D\easy\07_0.jpg,0,same,397.621510699988,None,up,0.20789269999659155,397.621510699988,None,None,None,002,001,B,2022_Mar_07_2107,270300_Mental_Rotation,2021.2.3,143.21066862017952,
,,,,241,0,241,0,,,,,,,,,,,,,,,,,,,,,,,,,,,,,,,,,,,,,,397.86611899999843,None,0.00569530000211671,1.0056953000021167,1,Stimuli_3D\easy\07_0_R.jpg,0,diff,398.8696794999996,None,down,0.04641589999664575,398.8696794999996,None,None,None,002,001,B,2022_Mar_07_2107,270300_Mental_Rotation,2021.2.3,143.21066862017952,
,,,,242,0,242,0,,,,,,,,,,,,,,,,,,,,,,,,,,,,,,,,,,,,,,398.93907539999054,None,0.0055300200037891045,1.005530020003789,1,Stimuli_3D\easy\07_50.jpg,50,same,399.9427740999963,None,up,0.2121404000063194,399.9427740999963,None,None,None,002,001,B,2022_Mar_07_2107,270300_Mental_Rotation,2021.2.3,143.21066862017952,
,,,,243,0,243,0,,,,,,,,,,,,,,,,,,,,,,,,,,,,,,,,,,,,,,400.17721059999894,None,0.005888319996302016,1.005888319996302,1,Stimuli_3D\easy\07_50_R.jpg,50,diff,401.18094539998856,None,down,0.1481952000031015,401.18094539998856,None,None,None,002,001,B,2022_Mar_07_2107,270300_Mental_Rotation,2021.2.3,143.21066862017952,
,,,,244,0,244,0,,,,,,,,,,,,,,,,,,,,,,,,,,,,,,,,,,,,,,401.3602436999936,None,0.0064193000143859535,1.006419300014386,1,Stimuli_3D\easy\07_100.jpg,100,same,402.3636652999994,None,up,0.1023743999976432,402.3636652999994,None,None,None,002,001,B,2022_Mar_07_2107,270300_Mental_Rotation,2021.2.3,143.21066862017952,
,,,,245,0,245,0,,,,,,,,,,,,,,,,,,,,,,,,,,,,,,,,,,,,,,402.4861826999986,None,0.006466220002039336,1.0064662200020393,1,Stimuli_3D\easy\07_100_R.jpg,100,diff,403.4899158999906,None,down,0.05116839999391232,403.4899158999906,None,None,None,002,001,B,2022_Mar_07_2107,270300_Mental_Rotation,2021.2.3,143.21066862017952,
,,,,246,0,246,0,,,,,,,,,,,,,,,,,,,,,,,,,,,,,,,,,,,,,,403.56226839999727,None,0.006724219987518154,1.0067242199875182,1,Stimuli_3D\easy\07_150.jpg,150,same,404.5659752999927,None,up,0.21473700000206009,404.5659752999927,None,None,None,002,001,B,2022_Mar_07_2107,270300_Mental_Rotation,2021.2.3,143.21066862017952,
,,,,247,0,247,0,,,,,,,,,,,,,,,,,,,,,,,,,,,,,,,,,,,,,,404.80437179999717,None,0.006940219987882301,1.0069402199878823,1,Stimuli_3D\easy\07_150_R.jpg,150,diff,405.8084211999958,None,down,0.5703394000011031,405.8084211999958,None,None,None,002,001,B,2022_Mar_07_2107,270300_Mental_Rotation,2021.2.3,143.21066862017952,
,,,,248,0,248,0,,,,,,,,,,,,,,,,,,,,,,,,,,,,,,,,,,,,,,406.3974882999901,None,0.005466120011988096,1.005466120011988,1,Stimuli_3D\easy\08_0.jpg,0,same,407.40123129999847,None,up,0.002471300002071075,407.40123129999847,None,None,None,002,001,B,2022_Mar_07_2107,270300_Mental_Rotation,2021.2.3,143.21066862017952,
,,,,249,0,249,0,,,,,,,,,,,,,,,,,,,,,,,,,,,,,,,,,,,,,,407.4230505000014,None,0.003999620006652549,1.0039996200066525,1,Stimuli_3D\easy\08_0_R.jpg,0,diff,408.4266634999949,None,down,0.1894931999995606,408.4266634999949,None,408.63863969998783,None,002,001,B,2022_Mar_07_2107,270300_Mental_Rotation,2021.2.3,143.21066862017952,
,,,,250,0,250,0,,,,,,,,,,,,,,,,,,,,,,,,,,,,,,,,,,,,,,411.64296269998886,None,0.0006445399922085926,1.0006445399922086,1,Stimuli_3D\easy\08_50.jpg,50,same,412.64780779999273,None,up,0.18109709999407642,412.64780779999273,None,None,None,002,001,B,2022_Mar_07_2107,270300_Mental_Rotation,2021.2.3,143.21066862017952,
,,,,251,0,251,0,,,,,,,,,,,,,,,,,,,,,,,,,,,,,,,,,,,,,,412.8548802000005,None,0.005642660005833022,1.005642660005833,1,Stimuli_3D\easy\08_50_R.jpg,50,diff,413.8647212999931,None,down,0.07679170000483282,413.8647212999931,None,None,None,002,001,B,2022_Mar_07_2107,270300_Mental_Rotation,2021.2.3,143.21066862017952,
,,,,252,0,252,0,,,,,,,,,,,,,,,,,,,,,,,,,,,,,,,,,,,,,,413.96969099999114,None,0.0036934600066160783,1.003693460006616,1,Stimuli_3D\easy\08_100.jpg,100,same,414.9715367999888,None,up,0.15713520000281278,414.9715367999888,None,None,None,002,001,B,2022_Mar_07_2107,270300_Mental_Rotation,2021.2.3,143.21066862017952,
,,,,253,0,253,0,,,,,,,,,,,,,,,,,,,,,,,,,,,,,,,,,,,,,,415.1510081999877,None,0.0065012200066121295,1.0065012200066121,1,Stimuli_3D\easy\08_100_R.jpg,100,diff,416.15397959999973,None,down,0.06272299999545794,416.15397959999973,None,None,None,002,001,B,2022_Mar_07_2107,270300_Mental_Rotation,2021.2.3,143.21066862017952,
,,,,254,0,254,0,,,,,,,,,,,,,,,,,,,,,,,,,,,,,,,,,,,,,,416.2537325999874,None,0.0037573000008706003,1.0037573000008706,1,Stimuli_3D\easy\08_150.jpg,150,same,417.26073129998986,None,up,0.19494390000181738,417.26073129998986,None,None,None,002,001,B,2022_Mar_07_2107,270300_Mental_Rotation,2021.2.3,143.21066862017952,
,,,,255,0,255,0,,,,,,,,,,,,,,,,,,,,,,,,,,,,,,,,,,,,,,417.4899301999976,None,0.004750099993543699,1.0047500999935437,1,Stimuli_3D\easy\08_150_R.jpg,150,diff,418.49609889999556,None,down,0.10814650000247639,418.49609889999556,None,None,None,002,001,B,2022_Mar_07_2107,270300_Mental_Rotation,2021.2.3,143.21066862017952,
,,,,256,0,256,0,,,,,,,,,,,,,,,,,,,,,,,,,,,,,,,,,,,,,,418.64247959999193,None,0.0048897999949986115,1.0048897999949986,1,Stimuli_3D\easy\09_0.jpg,0,same,419.64581489999546,None,up,0.14534390000335407,419.64581489999546,None,None,None,002,001,B,2022_Mar_07_2107,270300_Mental_Rotation,2021.2.3,143.21066862017952,
,,,,257,0,257,0,,,,,,,,,,,,,,,,,,,,,,,,,,,,,,,,,,,,,,419.8109148999938,None,0.0059558200009632856,1.0059558200009633,1,Stimuli_3D\easy\09_0_R.jpg,0,diff,420.81571229999827,None,down,0.11399290000554174,420.81571229999827,None,None,None,002,001,B,2022_Mar_07_2107,270300_Mental_Rotation,2021.2.3,143.21066862017952,
,,,,258,0,258,0,,,,,,,,,,,,,,,,,,,,,,,,,,,,,,,,,,,,,,420.951356199992,None,0.0059847200027434155,1.0059847200027434,1,Stimuli_3D\easy\09_50.jpg,50,same,421.9539933999913,None,up,0.049687599996104836,421.9539933999913,None,None,None,002,001,B,2022_Mar_07_2107,270300_Mental_Rotation,2021.2.3,143.21066862017952,
,,,,259,0,259,0,,,,,,,,,,,,,,,,,,,,,,,,,,,,,,,,,,,,,,422.02519269999175,None,0.006444419996114448,1.0064444199961144,1,Stimuli_3D\easy\09_50_R.jpg,50,diff,423.02947819999827,None,down,0.036658800003351644,423.02947819999827,None,423.09271479999006,None,002,001,B,2022_Mar_07_2107,270300_Mental_Rotation,2021.2.3,143.21066862017952,
,,,,260,0,260,0,,,,,,,,,,,,,,,,,,,,,,,,,,,,,,,,,,,,,,426.0991337999876,None,0.0007586400024592876,1.0007586400024593,1,Stimuli_3D\easy\09_100.jpg,100,same,427.10258079999767,None,up,0.03869780000241008,427.10258079999767,None,None,None,002,001,B,2022_Mar_07_2107,270300_Mental_Rotation,2021.2.3,143.21066862017952,
,,,,261,0,261,0,,,,,,,,,,,,,,,,,,,,,,,,,,,,,,,,,,,,,,427.16282089999004,None,0.0063942199922166765,1.0063942199922167,1,Stimuli_3D\easy\09_100_R.jpg,100,diff,428.1678307999973,None,down,0.11149090000253636,428.1678307999973,None,None,None,002,001,B,2022_Mar_07_2107,270300_Mental_Rotation,2021.2.3,143.21066862017952,
,,,,262,0,262,0,,,,,,,,,,,,,,,,,,,,,,,,,,,,,,,,,,,,,,428.3132442999922,None,0.004415599993080832,1.0044155999930808,1,Stimuli_3D\easy\09_150.jpg,150,same,429.3175459999911,None,up,0.06232789999921806,429.3175459999911,None,None,None,002,001,B,2022_Mar_07_2107,270300_Mental_Rotation,2021.2.3,143.21066862017952,
,,,,263,0,263,0,,,,,,,,,,,,,,,,,,,,,,,,,,,,,,,,,,,,,,429.42083279999497,None,0.0019964999810326844,1.0019964999810327,1,Stimuli_3D\easy\09_150_R.jpg,150,diff,430.4244871999981,None,down,0.05445139999210369,430.4244871999981,None,None,None,002,001,B,2022_Mar_07_2107,270300_Mental_Rotation,2021.2.3,143.21066862017952,
,,,,264,0,264,0,,,,,,,,,,,,,,,,,,,,,,,,,,,,,,,,,,,,,,430.49740480000037,None,0.006883420021040365,1.0068834200210404,1,Stimuli_3D\easy\10_0.jpg,0,same,431.5003546999942,None,up,0.1288405000086641,431.5003546999942,None,None,None,002,001,B,2022_Mar_07_2107,270300_Mental_Rotation,2021.2.3,143.21066862017952,
,,,,265,0,265,0,,,,,,,,,,,,,,,,,,,,,,,,,,,,,,,,,,,,,,431.6595615999977,None,0.004383359992061742,1.0043833599920617,1,Stimuli_3D\easy\10_0_R.jpg,0,diff,432.66371409999556,None,down,0.12725910000153817,432.66371409999556,None,None,None,002,001,B,2022_Mar_07_2107,270300_Mental_Rotation,2021.2.3,143.21066862017952,
,,,,266,0,266,0,,,,,,,,,,,,,,,,,,,,,,,,,,,,,,,,,,,,,,432.8137619999907,None,0.00041117999353446066,1.0004111799935345,1,Stimuli_3D\easy\10_50.jpg,50,same,433.81772429999546,None,up,0.11160570000356529,433.81772429999546,None,None,None,002,001,B,2022_Mar_07_2107,270300_Mental_Rotation,2021.2.3,143.21066862017952,
,,,,267,0,267,0,,,,,,,,,,,,,,,,,,,,,,,,,,,,,,,,,,,,,,433.96450560000085,None,0.0061778999952366576,1.0061778999952367,1,Stimuli_3D\easy\10_50_R.jpg,50,diff,434.9670993999898,None,down,0.09919259999878705,434.9670993999898,None,None,None,002,001,B,2022_Mar_07_2107,270300_Mental_Rotation,2021.2.3,143.21066862017952,
,,,,268,0,268,0,,,,,,,,,,,,,,,,,,,,,,,,,,,,,,,,,,,,,,435.08525279999594,None,0.0063517200032947585,1.0063517200032948,1,Stimuli_3D\easy\10_100.jpg,100,same,436.0884281999897,None,up,0.19007810000039171,436.0884281999897,None,None,None,002,001,B,2022_Mar_07_2107,270300_Mental_Rotation,2021.2.3,143.21066862017952,
,,,,269,0,269,0,,,,,,,,,,,,,,,,,,,,,,,,,,,,,,,,,,,,,,436.300319099988,None,0.00656481999612879,1.0065648199961288,1,Stimuli_3D\easy\10_100_R.jpg,100,diff,437.3038220999879,None,down,0.13802369999757502,437.3038220999879,None,437.4832626999996,None,002,001,B,2022_Mar_07_2107,270300_Mental_Rotation,2021.2.3,143.21066862017952,
,,,,270,0,270,0,,,,,,,,,,,,,,,,,,,,,,,,,,,,,,,,,,,,,,440.49271880000015,None,0.00036484000156633556,1.0003648400015663,1,Stimuli_3D\easy\10_150.jpg,150,same,441.49587889999384,None,up,0.3953097999910824,441.49587889999384,None,None,None,002,001,B,2022_Mar_07_2107,270300_Mental_Rotation,2021.2.3,143.21066862017952,
,,,,271,0,271,0,,,,,,,,,,,,,,,,,,,,,,,,,,,,,,,,,,,,,,441.91121349998866,None,0.006028719973983243,1.0060287199739832,1,Stimuli_3D\easy\10_150_R.jpg,150,diff,442.91481399998884,None,down,0.20250420000229497,442.91481399998884,None,None,None,002,001,B,2022_Mar_07_2107,270300_Mental_Rotation,2021.2.3,143.21066862017952,
,,,,272,0,272,0,,,,,,,,,,,,,,,,,,,,,,,,,,,,,,,,,,,,,,443.15413939999416,None,0.004232499995850958,1.004232499995851,1,Stimuli_3D\easy\11_0.jpg,0,same,444.15808129998914,None,up,0.1829757000086829,444.15808129998914,None,None,None,002,001,B,2022_Mar_07_2107,270300_Mental_Rotation,2021.2.3,143.21066862017952,
,,,,273,0,273,0,,,,,,,,,,,,,,,,,,,,,,,,,,,,,,,,,,,,,,444.36284129999694,None,0.005845919993589632,1.0058459199935896,1,Stimuli_3D\easy\11_0_R.jpg,0,diff,445.36636369999906,None,down,0.1746358000091277,445.36636369999906,None,None,None,002,001,B,2022_Mar_07_2107,270300_Mental_Rotation,2021.2.3,143.21066862017952,
,,,,274,0,274,0,,,,,,,,,,,,,,,,,,,,,,,,,,,,,,,,,,,,,,445.562056499999,None,0.00011297999299131334,1.0001129799929913,1,Stimuli_3D\easy\11_50.jpg,50,same,446.56586529999913,None,up,0.1508590000012191,446.56586529999913,None,None,None,002,001,B,2022_Mar_07_2107,270300_Mental_Rotation,2021.2.3,143.21066862017952,
,,,,275,0,275,0,,,,,,,,,,,,,,,,,,,,,,,,,,,,,,,,,,,,,,446.73583069999586,None,0.0067111199896316975,1.0067111199896317,1,Stimuli_3D\easy\11_50_R.jpg,50,diff,447.7499768999987,None,down,0.1681179000006523,447.7499768999987,None,None,None,002,001,B,2022_Mar_07_2107,270300_Mental_Rotation,2021.2.3,143.21066862017952,
,,,,276,0,276,0,,,,,,,,,,,,,,,,,,,,,,,,,,,,,,,,,,,,,,447.9367431999999,None,0.00044627999886870384,1.0004462799988687,1,Stimuli_3D\easy\11_100.jpg,100,same,448.94015349999245,None,up,0.17650359999970533,448.94015349999245,None,None,None,002,001,B,2022_Mar_07_2107,270300_Mental_Rotation,2021.2.3,143.21066862017952,
,,,,277,0,277,0,,,,,,,,,,,,,,,,,,,,,,,,,,,,,,,,,,,,,,449.16107199998805,None,0.0016355999978259206,1.001635599997826,1,Stimuli_3D\easy\11_100_R.jpg,100,diff,450.16349429999536,None,down,0.1658263999997871,450.16349429999536,None,None,None,002,001,B,2022_Mar_07_2107,270300_Mental_Rotation,2021.2.3,143.21066862017952,
,,,,278,0,278,0,,,,,,,,,,,,,,,,,,,,,,,,,,,,,,,,,,,,,,450.35922369999753,None,0.0030400600080611184,1.0030400600080611,1,Stimuli_3D\easy\11_150.jpg,150,same,451.36228989998926,None,up,0.20396700000856072,451.36228989998926,None,None,None,002,001,B,2022_Mar_07_2107,270300_Mental_Rotation,2021.2.3,143.21066862017952,
,,,,279,0,279,0,,,,,,,,,,,,,,,,,,,,,,,,,,,,,,,,,,,,,,451.5904653999896,None,0.005091819999506697,1.0050918199995067,1,Stimuli_3D\easy\11_150_R.jpg,150,diff,452.5937889999914,None,down,0.14808780000021216,452.5937889999914,None,452.77734000000055,None,002,001,B,2022_Mar_07_2107,270300_Mental_Rotation,2021.2.3,143.21066862017952,
,,,,280,0,280,0,,,,,,,,,,,,,,,,,,,,,,,,,,,,,,,,,,,,,,455.7817686999915,None,0.0004455399903235957,1.0004455399903236,1,Stimuli_3D\easy\12_0.jpg,0,same,456.7851484999992,None,up,0.19366550000268035,456.7851484999992,None,None,None,002,001,B,2022_Mar_07_2107,270300_Mental_Rotation,2021.2.3,143.21066862017952,
,,,,281,0,281,0,,,,,,,,,,,,,,,,,,,,,,,,,,,,,,,,,,,,,,456.9994743999996,None,0.005644220014801249,1.0056442200148012,1,Stimuli_3D\easy\12_0_R.jpg,0,diff,458.0054311999993,None,down,0.19881739999982528,458.0054311999993,None,None,None,002,001,B,2022_Mar_07_2107,270300_Mental_Rotation,2021.2.3,143.21066862017952,
,,,,282,0,282,0,,,,,,,,,,,,,,,,,,,,,,,,,,,,,,,,,,,,,,458.25287129999197,None,0.006579339999007061,1.006579339999007,1,Stimuli_3D\easy\12_50.jpg,50,same,459.2601311999897,None,up,0.10665449999214616,459.2601311999897,None,None,None,002,001,B,2022_Mar_07_2107,270300_Mental_Rotation,2021.2.3,143.21066862017952,
,,,,283,0,283,0,,,,,,,,,,,,,,,,,,,,,,,,,,,,,,,,,,,,,,459.39133269999,None,0.004107419998035766,1.0041074199980358,1,Stimuli_3D\easy\12_50_R.jpg,50,diff,460.3957958999963,None,down,0.05802670000412036,460.3957958999963,None,None,None,002,001,B,2022_Mar_07_2107,270300_Mental_Rotation,2021.2.3,143.21066862017952,
,,,,284,0,284,0,,,,,,,,,,,,,,,,,,,,,,,,,,,,,,,,,,,,,,460.4779808999883,None,0.005527419998543337,1.0055274199985433,1,Stimuli_3D\easy\12_100.jpg,100,same,461.48158859999967,None,up,0.034517899999627843,461.48158859999967,None,None,None,002,001,B,2022_Mar_07_2107,270300_Mental_Rotation,2021.2.3,143.21066862017952,
,,,,285,0,285,0,,,,,,,,,,,,,,,,,,,,,,,,,,,,,,,,,,,,,,461.5331956999871,None,4.6679997467435896e-05,1.0000466799974674,1,Stimuli_3D\easy\12_100_R.jpg,100,diff,462.5356041999912,None,down,0.0804680000001099,462.5356041999912,None,None,None,002,001,B,2022_Mar_07_2107,270300_Mental_Rotation,2021.2.3,143.21066862017952,
,,,,286,0,286,0,,,,,,,,,,,,,,,,,,,,,,,,,,,,,,,,,,,,,,462.6373661999969,None,0.00541431998135522,1.0054143199813552,1,Stimuli_3D\easy\12_150.jpg,150,same,463.6422143999953,None,up,0.011343300007865764,463.6422143999953,None,None,None,002,001,B,2022_Mar_07_2107,270300_Mental_Rotation,2021.2.3,143.21066862017952,
,,,,287,0,287,0,,,,,,,,,,,,,,,,,,,,,,,,,,,,,,,,,,,,,,463.6785680999892,None,0.005650220002280548,1.0056502200022805,1,Stimuli_3D\easy\12_150_R.jpg,150,diff,464.68251189999864,None,down,0.020961200003512204,464.68251189999864,None,None,None,002,001,B,2022_Mar_07_2107,270300_Mental_Rotation,2021.2.3,143.21066862017952,
,,,,288,0,288,0,,,,,,,,,,,,,,,,,,,,,,,,,,,,,,,,,,,,,,464.7221734999912,None,7.607998850289732e-05,1.000076079988503,1,Stimuli_3D\easy\13_0.jpg,0,same,465.72561409999616,None,up,0.3661680999939563,465.72561409999616,None,None,None,002,001,B,2022_Mar_07_2107,270300_Mental_Rotation,2021.2.3,143.21066862017952,
,,,,289,0,289,0,,,,,,,,,,,,,,,,,,,,,,,,,,,,,,,,,,,,,,466.12765759999456,None,0.0038570999895455316,1.0038570999895455,1,Stimuli_3D\easy\13_0_R.jpg,0,diff,467.13120209999033,None,down,0.5099449000117602,467.13120209999033,None,467.66530449999846,None,002,001,B,2022_Mar_07_2107,270300_Mental_Rotation,2021.2.3,143.21066862017952,
,,,,290,0,290,0,,,,,,,,,,,,,,,,,,,,,,,,,,,,,,,,,,,,,,470.6684960999992,None,0.0005191399977775291,1.0005191399977775,1,Stimuli_3D\easy\13_50.jpg,50,same,471.6721789000003,None,up,0.18144919999758713,471.6721789000003,None,None,None,002,001,B,2022_Mar_07_2107,270300_Mental_Rotation,2021.2.3,143.21066862017952,
,,,,291,0,291,0,,,,,,,,,,,,,,,,,,,,,,,,,,,,,,,,,,,,,,471.8710193000006,None,0.0063633200188633054,1.0063633200188633,1,Stimuli_3D\easy\13_50_R.jpg,50,diff,472.8750841000001,None,down,0.1034938999946462,472.8750841000001,None,None,None,002,001,B,2022_Mar_07_2107,270300_Mental_Rotation,2021.2.3,143.21066862017952,
